Markers
Date/time,Time (UNIX),Marker,
2024-01-08T13:20:33.543Z,1704720033543,start,
2024-01-08T13:20:43.539Z,1704720043539,End,

Polar Sense BA144D21: start time=536595162183.307,Excel datetime,42736.59215489939,,,,,,,,,,,,,,,,,,,,,,,,,,,
Time,PPGsum,Time,PPGsum_f,Time,PPG_f_reduced,Time,PPGrate,Time,PPGacceleration,Time,PPGrate_reduced,Time,PPGpeak,Time,PPGstart,Time,PPGend,Time,acc_x,Time,acc_y,Time,acc_z,Time,acc_v,Time,acc_v_reduced,,
0,-3282,0,-3282,0.535,-243,0,NaN,NaN,NaN,0.535,616,0.296,-282,0.284,-35,0.33,18,1.879,722,1.879,-85,1.879,-731,1.879,12887,2.677,12941,,
0.006,-3272,0.006,-3272,0.535,-243,0.006,176,0,NaN,0.535,616,0.734,-370,0.717,123,0.751,18,1.881,721,1.881,-82,1.881,-731,1.881,12875,2.677,12941,,
0.011,-3252,0.011,-3252,0.552,-170,0.011,352,0.006,NaN,0.54,475,1.264,-123,1.253,-18,1.27,-18,1.883,721,1.883,-82,1.883,-733,1.883,12893,3.052,12899,,
0.017,-3132,0.017,-3132,0.563,-131,0.017,2112,0.011,NaN,0.546,405,1.737,-229,1.731,-35,1.777,-18,1.886,721,1.886,-82,1.886,-734,1.886,12902,3.061,12802,,
0.023,-3080,0.023,-3080,0.587,-108,0.023,915,0.017,3252,0.552,405,4.46,-915,4.369,53,4.563,-158,1.888,722,1.888,-80,1.888,-735,1.888,12917,3.098,13019,,
0.028,-2893,0.028,-2943,0.598,-111,0.028,2411,0.023,9060,0.558,370,5.833,-845,5.765,-141,5.936,-53,1.891,721,1.891,-79,1.891,-734,1.891,12899,3.134,12913,,
0.034,-2814,0.034,-2856,0.604,-104,0.034,1531,0.028,-2556,0.563,317,7.11,-1162,7.024,-229,7.206,-106,1.893,719,1.893,-79,1.893,-736,1.893,12899,3.174,13112,,
0.04,-2816,0.04,-2771,0.621,-47,0.04,1496,0.034,2556,0.57,88,7.787,-968,7.753,-123,7.844,-123,1.896,721,1.896,-77,1.896,-735,1.896,12906,3.22,13115,,
0.045,-2664,0.045,-2688,0.632,-52,0.045,1461,0.04,-4180,0.575,70,8.568,-1021,8.483,-176,8.625,-176,1.898,721,1.898,-75,1.898,-732,1.898,12877,3.244,12966,,
0.051,-2639,0.051,-2602,0.644,-45,0.051,1514,0.045,-75,0.581,123,9.668,-1267,9.593,-194,9.759,-246,1.9,720,1.9,-72,1.9,-733,1.9,12875,3.28,13059,,
0.057,-2532,0.057,-2513,0.649,-36,0.057,1566,0.051,308,0.587,123,10.362,-1091,10.306,-123,10.443,-141,1.903,723,1.903,-72,1.903,-729,1.903,12866,3.295,13207,,
0.063,-2374,0.063,-2426,0.666,6,0.063,1531,0.057,308,0.592,-53,11.309,-1426,11.228,-194,11.354,-158,1.905,723,1.905,-72,1.905,-733,1.905,12901,3.343,13112,,
0.068,-2312,0.068,-2348,0.678,13,0.068,1373,0.063,-620,0.598,0,12.813,-950,12.79,-88,12.909,-106,1.908,723,1.908,-74,1.908,-731,1.908,12885,3.386,13252,,
0.074,-2271,0.074,-2274,0.683,23,0.074,1302,0.068,-1162,0.604,123,13.735,-1214,13.695,-211,13.86,-123,1.91,723,1.91,-72,1.91,-731,1.91,12883,3.396,13150,,
0.08,-2204,0.08,-2207,0.7,119,0.08,1179,0.074,-1549,0.609,317,14.362,-986,14.305,-70,14.39,-141,1.912,723,1.912,-73,1.912,-730,1.912,12875,3.444,13168,,
0.085,-2154,0.085,-2142,0.706,147,0.085,1144,0.08,-1008,0.615,387,15.541,-1074,15.456,-176,15.609,-194,1.915,722,1.915,-73,1.915,-730,1.915,12867,3.444,13168,,
0.091,-2045,0.091,-2077,0.712,167,0.091,1144,0.085,-695,0.621,299,17.136,-1461,17.027,-246,17.238,-246,1.917,723,1.917,-72,1.917,-729,1.917,12866,3.456,13052,,
0.097,-2083,0.097,-2010,0.717,174,0.097,1179,0.091,0,0.626,-53,18.059,-1144,18.008,-158,18.167,-211,1.92,722,1.92,-72,1.92,-728,1.92,12848,3.45,12845,,
0.102,-1918,0.102,-1945,0.723,169,0.102,1144,0.097,0,0.632,-35,18.753,-1144,18.645,-70,18.805,-211,1.922,723,1.922,-73,1.922,-727,1.922,12849,3.475,12902,,
0.108,-1833,0.108,-1879,0.734,132,0.108,1162,0.102,79,0.638,35,19.42,-1109,19.363,-194,19.523,-211,1.924,722,1.924,-70,1.924,-726,1.924,12829,3.518,12625,,
0.114,-1837,0.114,-1818,0.74,121,0.114,1074,0.108,-462,0.644,88,20.053,-1038,20.001,-176,20.104,-158,1.927,721,1.927,-69,1.927,-724,1.927,12801,3.568,12793,,
0.119,-1695,0.119,-1767,0.746,115,0.119,898,0.114,-1082,0.649,158,20.662,-968,20.583,-158,20.747,-141,1.929,724,1.929,-68,1.929,-726,1.929,12844,3.624,12647,,
0.125,-1739,0.125,-1718,0.751,116,0.125,862,0.119,-1320,0.655,299,21.277,-1162,21.203,-229,21.385,88,1.932,724,1.932,-66,1.932,-724,1.932,12825,3.681,12791,,
0.131,-1703,0.131,-1669,0.757,132,0.131,862,0.125,-933,0.666,194,21.955,-1232,21.853,-194,22.012,-194,1.934,722,1.934,-67,1.934,-723,1.934,12800,3.691,12650,,
0.136,-1635,0.136,-1614,0.78,257,0.136,968,0.131,308,0.672,88,22.832,-1162,22.724,-53,22.866,-194,1.936,723,1.936,-65,1.936,-721,1.936,12789,3.739,12480,,
0.142,-1593,0.142,-1548,0.797,369,0.142,1162,0.136,1320,0.678,35,23.545,-933,23.504,-106,23.602,-70,1.939,723,1.939,-65,1.939,-723,1.939,12807,3.787,12741,,
0.148,-1502,0.148,-1474,0.803,392,0.148,1302,0.142,1936,0.683,176,24.695,-1250,24.661,-229,24.798,-194,1.941,723,1.941,-65,1.941,-723,1.941,12807,3.787,12741,,
0.153,-1358,0.153,-1401,0.808,403,0.153,1285,0.148,1395,0.689,528,25.379,-915,25.333,-158,25.481,-176,1.944,725,1.944,-66,1.944,-722,1.944,12816,3.864,12654,,
0.159,-1303,0.159,-1327,0.814,407,0.159,1302,0.153,616,0.695,598,25.994,-1021,25.931,-123,26.034,-194,1.946,727,1.946,-65,1.946,-721,1.946,12825,3.866,12667,,
0.165,-1243,0.165,-1259,0.814,407,0.165,1197,0.159,-462,0.7,563,26.922,-2816,26.826,-510,27.088,-370,1.948,727,1.948,-63,1.948,-723,1.948,12841,3.861,12864,,
0.17,-1140,0.17,-1205,0.831,407,0.17,950,0.165,-1474,0.706,493,27.412,-3150,27.299,-70,27.515,-440,1.951,728,1.951,-65,1.951,-723,1.951,12851,3.919,12843,,
0.176,-1148,0.176,-1155,0.854,451,0.176,880,0.17,-1857,0.712,352,28.004,-1267,27.902,-229,28.142,-229,1.953,730,1.953,-66,1.953,-720,1.953,12843,3.94,12978,,
0.182,-1222,0.182,-1104,0.859,455,0.182,898,0.176,-1316,0.717,123,30.198,-1584,30.044,-264,30.363,-282,1.956,731,1.956,-63,1.956,-719,1.956,12841,3.955,12882,,
0.188,-1061,0.188,-1045,0.866,444,0.188,1038,0.182,387,0.723,-88,30.904,-2042,30.819,-405,30.939,-176,1.958,731,1.958,-63,1.958,-715,1.958,12806,3.976,12969,,
0.193,-873,0.193,-984,0.877,405,0.193,1074,0.188,854,0.729,-282,32.1,-1443,31.878,-669,32.186,-176,1.96,731,1.96,-65,1.96,-714,1.96,12799,3.993,12844,,
0.199,-953,0.199,-928,0.894,373,0.199,986,0.193,387,0.734,-370,32.938,-9310,32.915,-387,32.96,-1003,1.963,732,1.963,-66,1.963,-711,1.963,12782,4.036,12976,,
0.205,-879,0.205,-880,0.906,315,0.205,845,0.199,-849,0.74,-194,33.399,-15189,33.354,-493,33.427,-1003,1.965,732,1.965,-68,1.965,-710,1.965,12775,4.085,12843,,
0.21,-894,0.21,-831,0.917,240,0.21,862,0.205,-933,0.746,-106,33.86,-8237,33.838,-950,33.952,-898,1.968,733,1.968,-68,1.968,-708,1.968,12767,4.109,13022,,
0.216,-656,0.216,-790,0.94,37,0.216,722,0.21,-1162,0.751,18,34.345,-7533,34.259,-458,34.379,598,1.97,735,1.97,-68,1.97,-707,1.97,12776,4.236,13202,,
0.222,-697,0.222,-764,0.945,2,0.222,458,0.216,-1703,0.763,546,36.105,-6019,36.054,-1056,36.162,-528,1.972,733,1.972,-69,1.972,-708,1.972,12768,4.236,13202,,
0.227,-765,0.227,-755,0.957,-42,0.227,158,0.222,-3098,0.769,563,36.846,-3133,36.766,-458,37.017,-1549,1.975,734,1.975,-67,1.975,-709,1.975,12784,4.274,13173,,
0.233,-761,0.233,-751,0.968,-74,0.233,70,0.227,-2869,0.774,546,37.632,-2939,37.615,-546,37.643,-158,1.977,734,1.977,-65,1.977,-714,1.977,12826,4.284,13076,,
0.239,-791,0.239,-743,0.985,-148,0.239,141,0.233,-1395,0.78,546,67.624,-5702,67.544,-475,67.658,-528,1.98,734,1.98,-63,1.98,-715,1.98,12833,4.279,12883,,
0.244,-751,0.244,-723,1.008,-230,0.244,352,0.239,854,0.786,669,68.062,-9997,68.045,-1602,68.085,-1443,1.982,737,1.982,-64,1.982,-712,1.982,12834,4.286,12842,,
0.25,-778,0.25,-694,1.014,-247,0.25,510,0.244,1936,0.791,651,68.626,-9293,68.603,-194,68.649,-1109,1.984,736,1.984,-61,1.984,-712,1.984,12823,4.298,12939,,
0.256,-620,0.256,-654,1.031,-282,0.256,704,0.25,2477,0.797,651,69.173,-7638,69.15,-229,69.196,-1197,1.987,738,1.987,-61,1.987,-714,1.987,12858,4.325,12773,,
0.261,-537,0.261,-617,1.036,-299,0.261,651,0.256,1316,0.803,405,69.692,-5808,69.663,-176,69.726,123,1.989,737,1.989,-60,1.989,-714,1.989,12849,4.342,12916,,
0.267,-626,0.267,-588,1.048,-345,0.267,510,0.261,0,0.808,194,70.227,-5350,70.199,-370,70.255,-581,1.992,739,1.992,-59,1.992,-712,1.992,12849,4.361,12825,,
0.273,-493,0.273,-569,1.059,-374,0.273,334,0.267,-1628,0.814,70,70.779,-5667,70.751,-246,70.813,-933,1.994,739,1.994,-59,1.994,-712,1.994,12849,4.402,12925,,
0.278,-591,0.278,-558,1.07,-374,0.278,194,0.273,-2011,0.82,-18,71.349,-6477,71.32,440,71.378,-1126,1.996,741,1.996,-59,1.996,-712,1.996,12867,4.455,12764,,
0.284,-437,0.284,-560,1.076,-366,0.284,-35,0.278,-2398,0.825,-35,71.896,-7339,71.868,352,71.93,-616,1.999,740,1.999,-62,1.999,-711,1.999,12851,4.488,12801,,
0.29,-604,0.29,-572,1.082,-348,0.29,-211,0.284,-2398,0.825,-35,72.448,-3590,72.426,88,72.494,-616,2.001,743,2.001,-61,2.001,-705,2.001,12826,4.531,12609,,
0.296,-646,0.296,-588,1.099,-256,0.296,-282,0.29,-2094,0.831,53,72.984,-4277,72.961,141,73.018,-616,2.004,742,2.004,-60,2.004,-706,2.004,12825,4.553,12717,,
0.302,-595,0.302,-599,1.11,-206,0.302,-194,0.296,-700,0.837,176,73.793,-2904,73.77,53,73.833,-493,2.006,745,2.006,-58,2.006,-702,2.006,12816,4.628,12692,,
0.308,-579,0.308,-607,1.116,-189,0.308,-141,0.302,308,0.842,176,74.34,-4453,74.317,-880,74.38,-704,2.008,744,2.008,-63,2.008,-703,2.008,12819,4.628,12692,,
0.313,-600,0.313,-618,1.122,-180,0.313,-194,0.308,387,0.848,229,74.892,-3397,74.869,-264,74.932,-440,2.011,747,2.011,-62,2.011,-705,2.011,12863,4.681,12855,,
0.319,-660,0.319,-632,1.122,-180,0.319,-246,0.313,-229,0.854,194,75.696,-2992,75.672,616,75.73,-317,2.013,749,2.013,-61,2.013,-704,2.013,12872,4.689,12984,,
0.325,-671,0.325,-637,1.133,-177,0.325,-88,0.319,233,0.859,70,76.242,-2640,76.22,757,76.277,-246,2.016,749,2.016,-61,2.016,-708,2.016,12906,4.734,12637,,
0.33,-687,0.33,-636,1.15,-161,0.33,18,0.325,933,0.866,-194,76.778,-4277,76.755,282,76.812,-563,2.018,750,2.018,-61,2.018,-707,2.018,12906,4.816,12789,,
0.336,-508,0.336,-637,1.168,-164,0.336,-18,0.33,1003,0.872,-352,79.238,-3186,79.159,-458,79.29,-581,2.021,746,2.021,-59,2.021,-711,2.021,12903,4.838,12658,,
0.342,-724,0.342,-634,1.179,-156,0.342,53,0.336,620,0.877,-334,103.624,-2869,103.59,-475,103.658,-422,2.023,747,2.023,-61,2.023,-709,2.023,12896,4.866,12734,,
0.347,-623,0.347,-637,1.19,-132,0.347,-53,0.342,-312,0.883,-176,,,,,,,2.025,751,2.025,-61,2.025,-707,2.025,12915,4.879,12901,,
0.353,-597,0.353,-638,1.225,-21,0.353,-18,0.347,0,0.889,-158,,,,,,,2.028,752,2.028,-58,2.028,-708,2.028,12931,4.907,12819,,
0.359,-675,0.359,-637,1.236,2,0.359,18,0.353,-154,0.894,-229,,,,,,,2.03,757,2.03,-58,2.03,-710,2.03,12993,4.927,12948,,
0.364,-654,0.364,-638,1.253,2,0.364,-18,0.359,154,0.9,-458,,,,,,,2.033,758,2.033,-60,2.033,-709,2.033,12995,4.927,12948,,
0.37,-581,0.37,-644,1.27,-11,0.37,-106,0.364,-387,0.906,-563,,,,,,,2.035,756,2.035,-61,2.035,-712,2.035,13004,5.023,12917,,
0.376,-683,0.376,-643,1.276,-3,0.376,18,0.37,0,0.911,-616,,,,,,,2.037,757,2.037,-61,2.037,-712,2.037,13013,5.018,12846,,
0.381,-625,0.381,-654,1.287,32,0.381,-194,0.376,-774,0.917,-704,,,,,,,2.04,759,2.04,-60,2.04,-712,2.04,13030,5.032,12750,,
0.387,-632,0.387,-664,1.304,111,0.387,-176,0.381,-308,0.923,-827,,,,,,,2.042,759,2.042,-62,2.042,-711,2.042,13023,5.104,12859,,
0.393,-738,0.393,-671,1.315,129,0.393,-123,0.387,-620,0.928,-915,,,,,,,2.045,761,2.045,-60,2.045,-713,2.045,13057,5.114,12757,,
0.398,-708,0.398,-674,1.321,144,0.398,-53,0.393,620,0.934,-950,,,,,,,2.047,763,2.047,-57,2.047,-713,2.047,13073,5.145,12823,,
0.404,-587,0.404,-676,1.333,191,0.404,-35,0.398,620,0.94,-880,,,,,,,2.049,761,2.049,-58,2.049,-710,2.049,13030,5.186,12694,,
0.41,-757,0.41,-672,1.344,209,0.41,70,0.404,849,0.945,-616,,,,,,,2.052,762,2.052,-58,2.052,-709,2.052,13031,5.203,12703,,
0.415,-659,0.415,-666,1.361,213,0.415,106,0.41,700,0.951,-440,,,,,,,2.054,760,2.054,-59,2.054,-710,2.054,13022,5.229,12938,,
0.421,-665,0.421,-657,1.367,225,0.421,158,0.415,849,0.957,-334,,,,,,,2.057,761,2.057,-57,2.057,-710,2.057,13029,5.258,12762,,
0.427,-603,0.427,-648,1.378,269,0.427,158,0.421,387,0.962,-246,,,,,,,2.059,761,2.059,-56,2.059,-710,2.059,13029,5.316,12882,,
0.433,-677,0.433,-638,1.395,358,0.433,176,0.427,308,0.968,-317,,,,,,,2.061,760,2.061,-59,2.061,-711,2.061,13030,5.347,12730,,
0.438,-656,0.438,-627,1.401,368,0.438,194,0.433,158,0.974,-458,,,,,,,2.064,761,2.064,-57,2.064,-709,2.064,13021,5.347,12730,,
0.444,-530,0.444,-617,1.401,368,0.444,176,0.438,79,0.98,-440,,,,,,,2.066,760,2.066,-62,2.066,-710,2.066,13024,5.431,12650,,
0.45,-605,0.45,-609,1.423,371,0.45,141,0.444,-154,0.985,-405,,,,,,,2.069,765,2.069,-60,2.069,-710,2.069,13068,5.427,12853,,
0.455,-702,0.455,-594,1.475,320,0.455,264,0.45,308,0.991,-352,,,,,,,2.071,764,2.071,-61,2.071,-709,2.071,13051,5.429,12864,,
0.461,-623,0.461,-571,1.481,299,0.461,405,0.455,1008,0.997,-334,,,,,,,2.073,764,2.073,-59,2.073,-713,2.073,13084,5.477,12923,,
0.467,-518,0.467,-533,1.504,140,0.467,669,0.461,2323,1.002,-334,,,,,,,2.076,763,2.076,-58,2.076,-713,2.076,13074,5.513,13174,,
0.472,-480,0.472,-490,1.521,55,0.472,757,0.467,2169,1.008,-422,,,,,,,2.078,759,2.078,-56,2.078,-708,2.078,12993,5.569,13170,,
0.478,-420,0.478,-456,1.538,-12,0.478,598,0.472,849,1.014,-299,,,,,,,2.081,760,2.081,-54,2.081,-708,2.081,13001,5.6,13368,,
0.484,-335,0.484,-432,1.555,-100,0.484,422,0.478,-1087,1.019,-194,,,,,,,2.083,760,2.083,-55,2.083,-710,2.083,13019,5.67,13365,,
0.489,-465,0.489,-415,1.566,-130,0.489,299,0.484,-2015,1.025,-211,,,,,,,2.085,761,2.085,-55,2.085,-710,2.085,13028,5.713,13179,,
0.495,-427,0.495,-403,1.572,-135,0.495,211,0.489,-1703,1.031,-211,,,,,,,2.088,763,2.088,-56,2.088,-709,2.088,13038,5.713,13179,,
0.501,-389,0.501,-388,1.583,-140,0.501,264,0.495,-695,1.042,-387,,,,,,,2.09,763,2.09,-54,2.09,-709,2.09,13037,5.792,13243,,
0.506,-341,0.506,-370,1.617,-123,0.506,317,0.501,79,1.048,-422,,,,,,,2.093,763,2.093,-53,2.093,-707,2.093,13019,5.788,12862,,
0.512,-338,0.512,-356,1.646,-30,0.512,246,0.506,154,1.053,-299,,,,,,,2.095,764,2.095,-55,2.095,-706,2.095,13021,5.79,12855,,
0.518,-392,0.518,-342,1.663,53,0.518,246,0.512,-79,1.059,-211,,,,,,,2.097,763,2.097,-56,2.097,-705,2.097,13004,5.963,13052,,
0.523,-391,0.523,-315,1.691,92,0.523,475,0.518,695,1.065,-18,,,,,,,2.1,760,2.1,-58,2.1,-705,2.1,12978,6.006,12925,,
0.529,-281,0.529,-278,1.691,92,0.529,651,0.523,1782,1.07,18,,,,,,,2.102,761,2.102,-55,2.102,-704,2.102,12977,6.054,13040,,
0.535,-145,0.535,-243,1.708,102,0.535,616,0.529,1628,1.076,141,,,,,,,2.105,761,2.105,-55,2.105,-708,2.105,13011,6.129,12832,,
0.54,-207,0.54,-216,1.725,132,0.54,475,0.535,0,1.082,317,,,,,,,2.107,762,2.107,-56,2.107,-705,2.107,12995,6.129,12832,,
0.546,-238,0.546,-193,1.731,130,0.546,405,0.54,-1082,1.087,546,,,,,,,2.109,760,2.109,-57,2.109,-705,2.109,12978,6.165,13005,,
0.552,-186,0.552,-170,1.743,104,0.552,405,0.546,-928,1.093,546,,,,,,,2.112,760,2.112,-56,2.112,-705,2.112,12977,6.17,12987,,
0.558,-76,0.558,-149,1.766,74,0.558,370,0.552,-462,1.099,528,,,,,,,2.114,761,2.114,-56,2.114,-708,2.114,13012,6.166,12834,,
0.563,-128,0.563,-131,1.777,69,0.563,317,0.558,-387,1.105,440,,,,,,,2.117,760,2.117,-56,2.117,-705,2.117,12977,6.233,12968,,
0.57,-134,0.57,-126,1.783,78,0.57,88,0.563,-1395,1.11,440,,,,,,,2.119,760,2.119,-58,2.119,-706,2.119,12987,6.343,12887,,
0.575,-121,0.575,-122,1.8,131,0.575,70,0.57,-1320,1.11,440,,,,,,,2.121,765,2.121,-57,2.121,-704,2.121,13015,6.37,12976,,
0.581,-101,0.581,-115,1.806,133,0.581,123,0.575,-854,1.127,18,,,,,,,2.124,766,2.124,-61,2.124,-702,2.124,13010,6.435,12626,,
0.587,-154,0.587,-108,1.817,117,0.587,123,0.581,154,1.133,35,,,,,,,2.126,763,2.126,-60,2.126,-700,2.126,12965,6.447,12708,,
0.592,36,0.592,-111,1.823,131,0.592,-53,0.587,-541,1.144,141,,,,,,,2.129,765,2.129,-62,2.129,-698,2.129,12968,6.447,12708,,
0.598,-215,0.598,-111,1.84,220,0.598,0,0.592,-541,1.15,53,,,,,,,2.131,766,2.131,-62,2.131,-698,2.131,12977,6.529,12566,,
0.604,-194,0.604,-104,1.845,230,0.604,123,0.598,0,1.156,18,,,,,,,2.133,767,2.133,-64,2.133,-699,2.133,12996,6.523,12827,,
0.609,-103,0.609,-86,1.857,238,0.609,317,0.604,1628,1.162,-53,,,,,,,2.136,765,2.136,-65,2.136,-699,2.136,12979,6.528,12868,,
0.615,12,0.615,-64,1.868,227,0.615,387,0.609,1703,1.168,-18,,,,,,,2.138,766,2.138,-65,2.138,-700,2.138,12996,6.59,12814,,
0.621,14,0.621,-47,1.891,269,0.621,299,0.615,774,1.173,35,,,,,,,2.141,763,2.141,-63,2.141,-701,2.141,12976,6.604,12919,,
0.626,-49,0.626,-50,1.914,265,0.626,-53,0.621,-1628,1.179,106,,,,,,,2.143,764,2.143,-63,2.143,-702,2.143,12993,6.657,12759,,
0.632,-30,0.632,-52,1.965,407,0.632,-35,0.626,-1857,1.185,194,,,,,,,2.146,760,2.146,-64,2.146,-703,2.146,12966,6.684,12907,,
0.638,-133,0.638,-50,1.976,426,0.638,35,0.632,-1162,1.19,229,,,,,,,2.148,762,2.148,-60,2.148,-702,2.148,12973,6.698,12834,,
0.644,-68,0.644,-45,1.993,416,0.644,88,0.638,620,1.196,299,,,,,,,2.15,764,2.15,-60,2.15,-704,2.15,13008,6.734,13097,,
0.649,18,0.649,-36,1.993,416,0.649,158,0.644,849,1.202,405,,,,,,,2.153,763,2.153,-65,2.153,-702,2.153,12986,6.816,12935,,
0.655,-120,0.655,-19,1.999,422,0.655,299,0.649,1162,1.208,334,,,,,,,2.155,765,2.155,-63,2.155,-704,2.155,13019,6.912,13070,,
0.661,75,0.661,-5,2.016,469,0.661,246,0.655,695,1.219,299,,,,,,,2.158,766,2.158,-60,2.158,-704,2.158,13026,6.912,13070,,
0.666,58,0.666,6,2.022,470,0.666,194,0.661,158,1.225,299,,,,,,,2.16,766,2.16,-60,2.16,-702,2.16,13009,6.955,12929,,
0.672,28,0.672,11,2.033,449,0.672,88,0.666,-928,1.23,246,,,,,,,2.162,767,2.162,-58,2.162,-702,2.162,13017,6.967,13001,,
0.678,-46,0.678,13,2.039,423,0.678,35,0.672,-928,1.236,158,,,,,,,2.165,767,2.165,-57,2.165,-702,2.165,13016,6.972,12949,,
0.683,-34,0.683,23,2.045,387,0.683,176,0.678,-79,1.242,18,,,,,,,2.167,768,2.167,-61,2.167,-703,2.167,13037,6.968,12856,,
0.689,-11,0.689,53,2.085,86,0.689,528,0.683,1936,1.253,-18,,,,,,,2.17,767,2.17,-59,2.17,-699,2.17,12993,6.973,12809,,
0.695,119,0.695,87,2.096,12,0.695,598,0.689,2477,1.259,-88,,,,,,,2.172,769,2.172,-59,2.172,-700,2.172,13019,6.982,12886,,
0.7,181,0.7,119,2.125,-128,0.7,563,0.695,1703,1.264,-123,,,,,,,2.174,768,2.174,-57,2.174,-695,2.174,12967,7.014,12723,,
0.706,141,0.706,147,2.147,-263,0.706,493,0.7,-154,1.27,-18,,,,,,,2.177,768,2.177,-55,2.177,-696,2.177,12974,7.069,12909,,
0.712,148,0.712,167,2.159,-301,0.712,352,0.706,-1082,1.276,141,,,,,,,2.179,773,2.179,-55,2.179,-698,2.179,13037,7.093,12769,,
0.717,297,0.717,174,2.181,-312,0.717,123,0.712,-1936,1.281,264,,,,,,,2.182,772,2.182,-56,2.182,-696,2.182,13012,7.3,12661,,
0.723,191,0.723,169,2.204,-370,0.723,-88,0.717,-2556,1.287,352,,,,,,,2.184,772,2.184,-55,2.184,-698,2.184,13028,7.314,12537,,
0.729,114,0.729,153,2.221,-387,0.729,-282,0.723,-2790,1.293,458,,,,,,,2.186,773,2.186,-55,2.186,-698,2.186,13037,7.314,12537,,
0.734,147,0.734,132,2.227,-380,0.734,-370,0.729,-2169,1.298,528,,,,,,,2.189,771,2.189,-55,2.189,-702,2.189,13052,7.331,12717,,
0.74,100,0.74,121,2.244,-324,0.74,-194,0.734,-466,1.304,405,,,,,,,2.191,771,2.191,-57,2.191,-702,2.191,13053,7.326,12868,,
0.746,76,0.746,115,2.255,-311,0.746,-106,0.74,774,1.31,194,,,,,,,2.194,775,2.194,-58,2.194,-705,2.194,13116,7.336,12909,,
0.751,82,0.751,116,2.278,-231,0.751,18,0.746,1707,1.315,123,,,,,,,2.196,776,2.196,-58,2.196,-706,2.196,13134,7.485,12820,,
0.757,99,0.757,132,2.278,-231,0.757,282,0.751,2094,1.321,264,,,,,,,2.198,773,2.198,-57,2.198,-702,2.198,13072,7.531,12993,,
0.763,102,0.763,163,2.375,-82,0.763,546,0.757,2869,1.327,422,,,,,,,2.201,774,2.201,-57,2.201,-703,2.201,13089,7.574,12759,,
0.769,291,0.769,195,2.415,-119,0.769,563,0.763,2398,1.333,405,,,,,,,2.203,779,2.203,-55,2.203,-703,2.203,13134,7.634,12754,,
0.774,231,0.774,226,2.5,-23,0.774,546,0.769,1162,1.338,211,,,,,,,2.206,781,2.206,-58,2.206,-701,2.206,13138,7.668,12552,,
0.78,217,0.78,257,2.563,227,0.78,546,0.774,0,1.344,106,,,,,,,2.208,780,2.208,-58,2.208,-701,2.208,13129,7.668,12552,,
0.786,206,0.786,295,2.563,227,0.786,669,0.78,466,1.35,18,,,,,,,2.21,780,2.21,-60,2.21,-699,2.21,13114,7.704,12746,,
0.791,417,0.791,332,2.597,244,0.791,651,0.786,462,1.355,0,,,,,,,2.213,780,2.213,-61,2.213,-700,2.213,13123,7.7,12884,,
0.797,411,0.797,369,2.625,406,0.797,651,0.791,462,1.361,53,,,,,,,2.215,779,2.215,-56,2.215,-698,2.215,13093,7.709,12902,,
0.803,382,0.803,392,3.224,461,0.803,405,0.797,-1162,1.367,211,,,,,,,2.218,774,2.218,-57,2.218,-695,2.218,13023,7.834,12536,,
0.808,457,0.808,403,3.236,546,0.808,194,0.803,-2011,1.372,334,,,,,,,2.22,775,2.22,-55,2.22,-695,2.22,13030,7.863,12748,,
0.814,460,0.814,407,3.281,603,0.814,70,0.808,-2556,1.378,440,,,,,,,2.222,775,2.222,-56,2.222,-694,2.222,13023,7.875,12640,,
0.82,341,0.82,406,3.366,399,0.82,-18,0.814,-1861,1.384,510,,,,,,,2.225,775,2.225,-58,2.225,-694,2.225,13024,7.894,12743,,
0.825,405,0.825,404,3.429,49,0.825,-35,0.82,-1008,1.389,598,,,,,,,2.227,775,2.227,-59,2.227,-696,2.227,13042,8.01,12637,,
0.831,397,0.831,407,3.429,49,0.831,53,0.825,-75,1.395,458,,,,,,,2.23,776,2.23,-62,2.23,-694,2.23,13036,8.019,12741,,
0.837,392,0.837,417,3.503,-29,0.837,176,0.831,854,1.401,176,,,,,,,2.232,777,2.232,-60,2.232,-690,2.232,13011,8.019,12741,,
0.842,438,0.842,427,3.532,89,0.842,176,0.837,928,1.406,18,,,,,,,2.234,779,2.234,-62,2.234,-690,2.234,13031,8.063,12728,,
0.848,386,0.848,440,3.572,78,0.848,229,0.842,774,1.406,18,,,,,,,2.237,775,2.237,-62,2.237,-690,2.237,12994,8.058,12868,,
0.854,541,0.854,451,3.594,170,0.854,194,0.848,79,1.412,-18,,,,,,,2.239,774,2.239,-61,2.239,-690,2.239,12984,8.096,13002,,
0.859,462,0.859,455,3.629,97,0.859,70,0.854,-466,1.418,35,,,,,,,2.242,776,2.242,-61,2.242,-688,2.242,12986,8.166,12919,,
0.866,546,0.866,444,3.629,97,0.866,-194,0.859,-1861,1.423,18,,,,,,,2.244,778,2.244,-60,2.244,-686,2.244,12987,8.209,12726,,
0.872,370,0.872,424,3.799,421,0.872,-352,0.866,-2402,1.429,-70,,,,,,,2.246,780,2.246,-59,2.246,-692,2.246,13055,8.224,12962,,
0.877,361,0.877,405,3.851,366,0.877,-334,0.872,-1778,1.435,-194,,,,,,,2.249,781,2.249,-57,2.249,-693,2.249,13071,8.288,12928,,
0.883,340,0.883,395,3.965,-52,0.883,-176,0.877,79,1.44,-123,,,,,,,2.251,778,2.251,-58,2.251,-690,2.251,13019,8.303,13043,,
0.889,435,0.889,386,3.999,76,0.889,-158,0.883,854,1.447,-106,,,,,,,2.254,778,2.254,-60,2.254,-690,2.254,13020,8.356,12726,,
0.894,456,0.894,373,4.033,36,0.894,-229,0.889,462,1.458,-35,,,,,,,2.256,782,2.256,-61,2.256,-687,2.256,13034,8.356,12726,,
0.9,311,0.9,347,4.033,36,0.9,-458,0.894,-1241,1.464,-53,,,,,,,2.258,782,2.258,-57,2.258,-688,2.258,13039,8.464,12710,,
0.906,366,0.906,315,4.033,36,0.906,-563,0.9,-1782,1.47,-106,,,,,,,2.261,785,2.261,-57,2.261,-682,2.261,13018,8.459,12898,,
0.911,229,0.911,280,4.198,313,0.911,-616,0.906,-1703,1.475,-141,,,,,,,2.263,785,2.263,-57,2.263,-683,2.263,13026,8.541,12599,,
0.917,285,0.917,240,4.232,306,0.917,-704,0.911,-1082,1.481,-370,,,,,,,2.266,788,2.266,-57,2.266,-687,2.266,13087,8.632,12616,,
0.923,240,0.923,193,4.312,527,0.923,-827,0.917,-1162,1.487,-634,,,,,,,2.268,788,2.268,-57,2.268,-686,2.268,13079,8.654,12767,,
0.928,118,0.928,141,4.369,593,0.928,-915,0.923,-1316,1.492,-722,,,,,,,2.271,792,2.271,-56,2.271,-684,2.271,13100,8.724,12650,,
0.934,126,0.934,87,4.438,205,0.934,-950,0.928,-1082,1.498,-792,,,,,,,2.273,794,2.273,-57,2.273,-682,2.273,13103,8.752,12792,,
0.94,-57,0.94,37,4.5,-272,0.94,-880,0.934,-233,1.509,-510,,,,,,,2.275,794,2.275,-55,2.275,-684,2.275,13118,8.803,12569,,
0.945,-38,0.945,2,4.546,-454,0.945,-616,0.94,1316,1.515,-510,,,,,,,2.278,796,2.278,-57,2.278,-685,2.278,13146,8.803,12569,,
0.951,-46,0.951,-23,4.574,-484,0.951,-440,0.945,2244,1.521,-475,,,,,,,2.28,799,2.28,-58,2.28,-684,2.28,13167,8.849,12490,,
0.957,-40,0.957,-42,4.574,-484,0.957,-334,0.951,2402,1.526,-387,,,,,,,2.283,798,2.283,-57,2.283,-684,2.283,13157,8.851,12542,,
0.962,2,0.962,-56,4.682,-243,0.962,-246,0.957,1628,1.532,-422,,,,,,,2.285,798,2.285,-57,2.285,-686,2.285,13173,8.847,12874,,
0.968,-143,0.968,-74,4.774,-233,0.968,-317,0.962,541,1.538,-370,,,,,,,2.287,800,2.287,-59,2.287,-685,2.287,13186,8.852,12928,,
0.974,41,0.974,-100,4.808,-74,0.974,-458,0.968,-546,1.544,-458,,,,,,,2.29,796,2.29,-58,2.29,-679,2.29,13098,8.893,12912,,
0.98,-206,0.98,-125,4.848,-129,0.98,-440,0.974,-854,1.549,-581,,,,,,,2.292,796,2.292,-62,2.292,-677,2.292,13085,8.931,13114,,
0.985,-222,0.985,-148,4.848,-129,0.985,-405,0.98,-387,1.555,-510,,,,,,,2.287,722,2.287,-86,2.287,-730,2.287,12879,9.106,12967,,
0.991,-117,0.991,-168,4.921,180,0.991,-352,0.985,466,1.561,-299,,,,,,,2.29,722,2.29,-84,2.29,-730,2.29,12877,9.152,13073,,
0.997,-147,0.997,-187,5.042,357,0.997,-334,0.991,466,1.566,-229,,,,,,,2.292,720,2.292,-85,2.292,-729,2.292,12852,9.162,12923,,
1.002,-222,1.002,-206,5.121,68,1.002,-334,0.997,312,1.572,-88,,,,,,,2.295,720,2.295,-85,2.295,-729,2.295,12852,9.162,12923,,
1.008,-260,1.008,-230,5.201,-422,1.008,-422,1.002,-308,1.578,-35,,,,,,,2.297,722,2.297,-85,2.297,-731,2.297,12887,9.208,12812,,
1.014,-250,1.014,-247,5.201,-422,1.014,-299,1.008,154,1.583,-53,,,,,,,2.299,723,2.299,-87,2.299,-729,2.299,12880,9.345,12889,,
1.019,-276,1.019,-258,5.389,-193,1.019,-194,1.014,616,1.589,53,,,,,,,2.302,721,2.302,-86,2.302,-731,2.302,12879,9.359,12732,,
1.025,-283,1.025,-270,5.389,-193,1.025,-211,1.019,928,1.595,88,,,,,,,2.304,721,2.304,-84,2.304,-732,2.304,12886,9.46,12814,,
1.031,-231,1.031,-282,5.514,112,1.031,-211,1.025,387,1.6,0,,,,,,,2.307,724,2.307,-85,2.307,-731,2.307,12904,9.472,12939,,
1.036,-282,1.036,-299,5.548,95,1.036,-299,1.031,-462,1.606,0,,,,,,,2.309,725,2.309,-85,2.309,-731,2.309,12913,9.487,12833,,
1.042,-313,1.042,-321,5.617,345,1.042,-387,1.036,-774,1.617,106,,,,,,,2.311,721,2.311,-85,2.311,-731,2.311,12878,9.487,12833,,
1.048,-342,1.048,-345,5.708,455,1.048,-422,1.042,-928,1.623,299,,,,,,,2.314,723,2.314,-85,2.314,-730,2.314,12887,9.552,12780,,
1.053,-465,1.053,-362,5.742,604,1.053,-299,1.048,0,1.629,370,,,,,,,2.316,717,2.316,-85,2.316,-732,2.316,12852,9.564,12908,,
1.059,-311,1.059,-374,5.776,538,1.059,-211,1.053,774,1.634,352,,,,,,,2.319,718,2.319,-83,2.319,-732,2.319,12859,9.593,12709,,
1.065,-433,1.065,-375,5.776,538,1.065,-18,1.059,1778,1.64,246,,,,,,,2.321,718,2.321,-84,2.321,-735,2.321,12887,9.65,12829,,
1.07,-360,1.07,-374,5.879,-48,1.07,18,1.065,1395,1.651,493,,,,,,,2.323,718,2.323,-82,2.323,-733,2.323,12867,9.677,12647,,
1.076,-384,1.076,-366,5.93,-226,1.076,141,1.07,1549,1.657,581,,,,,,,2.326,716,2.326,-81,2.326,-735,2.326,12866,9.708,12763,,
1.082,-409,1.082,-348,5.987,-94,1.082,317,1.076,1474,1.663,387,,,,,,,2.328,714,2.328,-83,2.328,-737,2.328,12869,9.761,12716,,
1.087,-360,1.087,-317,5.987,-94,1.087,546,1.082,2323,1.669,229,,,,,,,2.331,715,2.331,-82,2.331,-733,2.331,12841,9.792,12944,,
1.093,-210,1.093,-286,6.072,-51,1.093,546,1.087,1782,1.674,35,,,,,,,2.333,716,2.333,-80,2.333,-733,2.333,12847,9.848,12778,,
1.099,-258,1.099,-256,6.101,-113,1.099,528,1.093,928,1.68,123,,,,,,,2.336,715,2.336,-80,2.336,-733,2.336,12839,9.908,12950,,
1.105,-233,1.105,-231,6.17,115,1.105,440,1.099,-466,1.691,158,,,,,,,2.338,715,2.338,-80,2.338,-732,2.338,12830,9.908,12950,,
1.11,-242,1.11,-206,6.21,105,1.11,440,1.105,-466,1.697,88,,,,,,,2.34,716,2.34,-80,2.34,-735,2.34,12865,9.951,12789,,
1.116,-87,1.116,-189,6.352,328,1.116,299,1.11,-1008,1.703,70,,,,,,,2.343,715,2.343,-81,2.343,-735,2.343,12857,9.994,12966,,
1.122,-137,1.122,-180,6.352,328,1.122,158,1.116,-1241,1.703,70,,,,,,,2.345,714,2.345,-79,2.345,-735,2.345,12847,10.131,12738,,
1.127,-242,1.127,-179,6.403,509,1.127,18,1.122,-1857,1.708,18,,,,,,,2.348,715,2.348,-79,2.348,-736,2.348,12864,10.15,12879,,
1.133,-214,1.133,-177,6.438,403,1.133,35,1.127,-1162,1.714,176,,,,,,,2.35,715,2.35,-81,2.35,-736,2.35,12866,10.201,12890,,
1.139,-120,1.139,-172,6.602,787,1.139,88,1.133,-308,1.72,211,,,,,,,2.352,717,2.352,-80,2.352,-736,2.352,12883,10.201,12890,,
1.144,-197,1.144,-164,6.602,787,1.144,141,1.139,541,1.725,141,,,,,,,2.355,723,2.355,-79,2.355,-730,2.355,12881,10.331,12720,,
1.15,-154,1.15,-161,6.728,893,1.15,53,1.144,79,1.731,-35,,,,,,,2.357,722,2.357,-78,2.357,-731,2.357,12880,10.326,12892,,
1.156,-111,1.156,-160,6.779,858,1.156,18,1.15,-308,1.737,-229,,,,,,,2.36,721,2.36,-77,2.36,-727,2.36,12835,10.336,12945,,
1.162,-158,1.162,-163,6.853,1042,1.162,-53,1.156,-854,1.743,-229,,,,,,,2.362,721,2.362,-77,2.362,-726,2.362,12826,10.403,12948,,
1.168,-194,1.168,-164,6.887,971,1.168,-18,1.162,-312,1.749,-88,,,,,,,2.364,722,2.364,-76,2.364,-721,2.364,12790,10.435,12826,,
1.173,-213,1.173,-162,6.887,971,1.173,35,1.168,75,1.755,-158,,,,,,,2.367,721,2.367,-69,2.367,-722,2.367,12784,10.475,12888,,
1.179,-132,1.179,-156,7.03,942,1.179,106,1.173,700,1.76,-141,,,,,,,2.369,726,2.369,-68,2.369,-718,2.369,12792,10.528,12657,,
1.185,-104,1.185,-145,7.144,33,1.185,194,1.179,933,1.766,-141,,,,,,,2.372,726,2.372,-68,2.372,-719,2.372,12801,10.536,12758,,
1.19,-245,1.19,-132,7.189,-240,1.19,229,1.185,854,1.772,-70,,,,,,,2.374,721,2.374,-67,2.374,-718,2.374,12747,10.62,12622,,
1.196,-67,1.196,-115,7.189,-240,1.196,299,1.19,849,1.777,-18,,,,,,,2.376,720,2.376,-65,2.376,-717,2.376,12727,10.62,12622,,
1.202,-80,1.202,-92,7.291,-285,1.202,405,1.196,928,1.783,158,,,,,,,2.379,719,2.379,-64,2.379,-717,2.379,12718,10.689,12657,,
1.208,-84,1.208,-73,7.389,-176,1.208,334,1.202,462,1.789,282,,,,,,,2.381,720,2.381,-63,2.381,-717,2.381,12726,10.692,12667,,
1.213,-30,1.213,-55,7.429,-210,1.213,317,1.208,79,1.794,370,,,,,,,2.384,725,2.384,-63,2.384,-718,2.384,12779,10.687,12871,,
1.219,-82,1.219,-38,7.429,-210,1.219,299,1.213,-466,1.8,282,,,,,,,2.386,727,2.386,-66,2.386,-717,2.386,12790,10.718,12811,,
1.225,4,1.225,-21,7.605,139,1.225,299,1.219,-154,1.811,-211,,,,,,,2.388,726,2.388,-66,2.388,-717,2.388,12781,10.747,12964,,
1.23,41,1.23,-7,7.708,239,1.23,246,1.225,-312,1.817,-70,,,,,,,2.391,725,2.391,-67,2.391,-718,2.391,12782,10.879,12646,,
1.236,-38,1.236,2,7.759,218,1.236,158,1.23,-620,1.823,246,,,,,,,2.393,725,2.393,-64,2.393,-717,2.393,12771,10.961,12726,,
1.242,65,1.242,3,7.759,218,1.242,18,1.236,-1236,1.828,528,,,,,,,2.396,725,2.396,-66,2.396,-717,2.396,12772,10.975,12639,,
1.247,-15,1.247,3,7.804,-78,1.247,0,1.242,-1082,1.834,598,,,,,,,2.398,724,2.398,-66,2.398,-716,2.398,12755,10.997,12742,,
1.253,-26,1.253,2,7.896,-402,1.253,-18,1.247,-774,1.84,440,,,,,,,2.4,725,2.4,-68,2.4,-717,2.4,12774,11.038,12568,,
1.259,61,1.259,-3,7.896,-402,1.259,-88,1.253,-466,1.845,176,,,,,,,2.403,726,2.403,-66,2.403,-717,2.403,12781,11.038,12568,,
1.264,-25,1.264,-10,7.941,-393,1.264,-123,1.259,-541,1.857,35,,,,,,,2.405,725,2.405,-65,2.405,-716,2.405,12763,11.084,12587,,
1.27,-66,1.27,-11,8.106,-74,1.27,-18,1.264,0,1.862,-123,,,,,,,2.408,729,2.408,-64,2.408,-718,2.408,12815,11.079,12862,,
1.276,-26,1.276,-3,8.146,-134,1.276,141,1.27,1008,1.868,-70,,,,,,,2.41,730,2.41,-65,2.41,-716,2.41,12807,11.101,13014,,
1.281,6,1.281,12,8.351,375,1.281,264,1.276,1703,1.874,141,,,,,,,2.412,734,2.412,-66,2.412,-713,2.412,12818,11.129,12993,,
1.287,39,1.287,32,8.397,361,1.287,352,1.281,1628,1.88,229,,,,,,,2.415,735,2.415,-66,2.415,-712,2.415,12818,11.163,12751,,
1.293,-12,1.293,58,8.397,361,1.293,458,1.287,1395,1.885,211,,,,,,,2.417,734,2.417,-67,2.417,-709,2.417,12784,11.226,12876,,
1.298,88,1.298,88,8.442,524,1.298,528,1.293,1162,1.891,158,,,,,,,2.42,735,2.42,-65,2.42,-707,2.42,12774,11.286,12698,,
1.304,281,1.304,111,8.483,483,1.304,405,1.298,233,1.897,0,,,,,,,2.422,735,2.422,-66,2.422,-709,2.422,12792,11.375,12751,,
1.31,110,1.31,122,8.613,-408,1.31,194,1.304,-1162,1.902,-70,,,,,,,2.424,735,2.424,-70,2.424,-707,2.424,12778,11.399,12918,,
1.315,40,1.315,129,8.665,-485,1.315,123,1.31,-1782,1.908,0,,,,,,,2.427,737,2.427,-70,2.427,-711,2.427,12831,11.399,12918,,
1.321,77,1.321,144,8.665,-485,1.321,264,1.315,-620,1.914,0,,,,,,,2.429,739,2.429,-67,2.429,-711,2.429,12846,11.444,12667,,
1.327,210,1.327,168,8.716,-377,1.327,422,1.321,1003,1.919,194,,,,,,,2.432,739,2.432,-65,2.432,-708,2.432,12819,11.456,12704,,
1.333,255,1.333,191,8.785,-443,1.333,405,1.327,1241,1.925,370,,,,,,,2.434,739,2.434,-65,2.434,-709,2.434,12827,11.452,12839,,
1.338,184,1.338,203,8.819,-339,1.338,211,1.333,-233,1.931,282,,,,,,,2.436,738,2.436,-64,2.436,-711,2.436,12835,11.498,12954,,
1.344,242,1.344,209,8.859,-408,1.344,106,1.338,-1390,1.936,211,,,,,,,2.439,739,2.439,-66,2.439,-709,2.439,12828,11.541,12833,,
1.35,252,1.35,210,8.967,-318,1.35,18,1.344,-1703,1.942,352,,,,,,,2.441,737,2.441,-65,2.441,-709,2.441,12809,11.726,12895,,
1.355,148,1.355,210,8.967,-318,1.355,0,1.35,-928,1.948,299,,,,,,,2.444,739,2.444,-66,2.444,-710,2.444,12837,11.774,12767,,
1.361,202,1.361,213,9.001,-184,1.361,53,1.355,-233,1.953,282,,,,,,,2.446,744,2.446,-65,2.446,-708,2.446,12864,11.774,12767,,
1.367,191,1.367,225,9.058,-175,1.367,211,1.361,849,1.959,317,,,,,,,2.448,745,2.448,-63,2.448,-708,2.448,12871,11.874,13026,,
1.372,256,1.372,244,9.161,-555,1.372,334,1.367,1470,1.965,194,,,,,,,2.451,745,2.451,-62,2.451,-706,2.451,12853,11.929,12805,,
1.378,237,1.378,269,9.229,-339,1.378,440,1.372,1703,1.97,158,,,,,,,2.453,745,2.453,-62,2.453,-704,2.453,12836,12.063,12663,,
1.384,239,1.384,298,9.229,-339,1.384,510,1.378,1316,1.976,176,,,,,,,2.456,746,2.456,-63,2.456,-701,2.456,12820,12.102,12871,,
1.389,393,1.389,332,9.44,-102,1.389,598,1.384,1162,1.987,-141,,,,,,,2.458,746,2.458,-63,2.458,-699,2.458,12803,12.102,12871,,
1.395,425,1.395,358,9.485,98,1.395,458,1.389,79,1.993,-53,,,,,,,2.461,743,2.461,-64,2.461,-698,2.461,12768,12.165,12884,,
1.401,414,1.401,368,9.485,98,1.401,176,1.395,-1470,1.999,106,,,,,,,2.463,744,2.463,-64,2.463,-697,2.463,12769,12.194,12729,,
1.406,366,1.406,369,9.593,98,1.406,18,1.401,-2552,1.999,106,,,,,,,2.465,742,2.465,-63,2.465,-697,2.465,12750,12.29,12764,,
1.412,280,1.412,368,9.651,-219,1.412,-18,1.406,-2094,2.005,282,,,,,,,2.468,741,2.468,-65,2.468,-697,2.468,12742,12.374,12554,,
1.418,402,1.418,370,9.719,-897,1.418,35,1.412,-620,2.01,334,,,,,,,2.47,741,2.47,-66,2.47,-694,2.47,12717,12.427,12613,,
1.423,441,1.423,371,9.747,-1092,1.423,18,1.418,0,2.016,211,,,,,,,2.473,740,2.473,-63,2.473,-695,2.473,12714,12.47,12420,,
1.429,304,1.429,367,9.793,-1256,1.429,-70,1.423,-229,2.022,18,,,,,,,2.475,741,2.475,-64,2.475,-696,2.475,12733,12.47,12420,,
1.435,443,1.435,356,9.793,-1256,1.435,-194,1.429,-1008,2.027,-123,,,,,,,2.477,740,2.477,-65,2.477,-694,2.477,12707,12.542,12420,,
1.44,276,1.44,349,9.867,-1268,1.44,-123,1.435,-620,2.033,-246,,,,,,,2.48,742,2.48,-64,2.48,-696,2.48,12742,12.544,12439,,
1.447,333,1.447,343,9.913,-1156,1.447,-106,1.44,-158,2.045,-634,,,,,,,2.482,742,2.482,-62,2.482,-695,2.482,12732,12.54,12852,,
1.453,382,1.453,339,9.941,-1209,1.453,-70,1.447,546,2.051,-774,,,,,,,2.485,741,2.485,-61,2.485,-693,2.485,12705,12.593,12938,,
1.458,293,1.458,337,10.06,-900,1.458,-35,1.453,387,2.056,-792,,,,,,,2.487,742,2.487,-65,2.487,-693,2.487,12717,12.653,12897,,
1.464,326,1.464,334,10.06,-900,1.464,-53,1.458,233,2.062,-757,,,,,,,2.489,742,2.489,-64,2.489,-691,2.489,12699,12.704,12675,,
1.47,369,1.47,328,10.095,-905,1.47,-106,1.464,-158,2.068,-686,,,,,,,2.492,741,2.492,-65,2.492,-690,2.492,12682,12.735,12718,,
1.475,314,1.475,320,10.175,-620,1.475,-141,1.47,-466,2.073,-722,,,,,,,2.494,741,2.494,-65,2.494,-694,2.494,12717,12.752,12910,,
1.481,375,1.481,299,10.26,-469,1.481,-370,1.475,-1395,2.079,-792,,,,,,,2.497,741,2.497,-64,2.497,-694,2.497,12716,12.788,12698,,
1.487,326,1.487,263,10.323,-562,1.487,-634,1.481,-2323,2.085,-774,,,,,,,2.499,741,2.499,-63,2.499,-693,2.499,12706,12.874,12744,,
1.492,174,1.492,222,10.323,-562,1.492,-722,1.487,-2556,2.091,-686,,,,,,,2.501,743,2.501,-62,2.501,-692,2.501,12715,12.874,12744,,
1.498,159,1.498,177,10.437,-1411,1.498,-792,1.492,-1857,2.096,-616,,,,,,,2.504,742,2.504,-62,2.504,-696,2.504,12740,12.906,12610,,
1.504,95,1.504,140,10.511,-1450,1.504,-651,1.498,-75,2.102,-581,,,,,,,2.506,742,2.506,-64,2.506,-695,2.506,12733,12.901,12871,,
1.509,128,1.509,111,10.511,-1450,1.509,-510,1.504,933,2.108,-493,,,,,,,2.509,741,2.509,-63,2.509,-693,2.509,12706,12.927,12945,,
1.515,68,1.515,82,10.625,-1195,1.515,-510,1.509,1241,2.119,-422,,,,,,,2.511,742,2.511,-64,2.511,-694,2.511,12725,12.971,12754,,
1.521,93,1.521,55,10.659,-1204,1.521,-475,1.515,774,2.125,-510,,,,,,,2.513,742,2.513,-62,2.513,-694,2.513,12723,12.999,12876,,
1.526,-39,1.526,33,10.659,-1204,1.526,-387,1.521,541,2.136,-651,,,,,,,2.516,743,2.516,-63,2.516,-694,2.516,12733,13.016,12795,,
1.532,24,1.532,9,11.041,-142,1.532,-422,1.526,387,2.142,-563,,,,,,,2.518,741,2.518,-64,2.518,-694,2.518,12716,13.026,12921,,
1.538,48,1.538,-12,11.177,84,1.538,-370,1.532,462,2.147,-581,,,,,,,2.521,742,2.521,-66,2.521,-692,2.521,12709,13.05,12789,,
1.544,-61,1.544,-38,11.228,17,1.544,-458,1.538,-312,2.153,-422,,,,,,,2.523,743,2.523,-66,2.523,-693,2.523,12727,13.05,12789,,
1.549,-28,1.549,-71,11.228,17,1.549,-581,1.544,-700,2.159,-246,,,,,,,2.525,743,2.525,-64,2.525,-694,2.525,12734,13.283,12648,,
1.555,-141,1.555,-100,11.274,-262,1.555,-510,1.549,-616,2.164,-53,,,,,,,2.528,744,2.528,-62,2.528,-693,2.528,12733,13.288,12653,,
1.561,-227,1.561,-117,11.326,-849,1.561,-299,1.555,700,2.17,-53,,,,,,,2.53,743,2.53,-65,2.53,-692,2.53,12718,13.283,12873,,
1.566,-70,1.566,-130,11.348,-994,1.566,-229,1.561,1549,2.176,0,,,,,,,2.533,743,2.533,-64,2.533,-693,2.533,12725,13.291,12899,,
1.572,-125,1.572,-135,11.434,-1154,1.572,-88,1.566,1857,2.181,-88,,,,,,,2.535,742,2.535,-63,2.535,-694,2.535,12724,13.36,12842,,
1.578,-185,1.578,-137,11.496,-880,1.578,-35,1.572,1162,2.187,-158,,,,,,,2.537,742,2.537,-63,2.537,-692,2.537,12707,13.404,13044,,
1.583,-142,1.583,-140,11.496,-880,1.583,-53,1.578,774,2.193,-299,,,,,,,2.54,741,2.54,-62,2.54,-693,2.54,12706,13.476,13026,,
1.589,-108,1.589,-137,11.598,-946,1.589,53,1.583,620,2.198,-264,,,,,,,2.542,742,2.542,-64,2.542,-695,2.542,12733,13.485,12925,,
1.595,-164,1.595,-132,11.804,-319,1.595,88,1.589,541,2.204,-299,,,,,,,2.545,742,2.545,-66,2.545,-693,2.545,12718,13.538,13053,,
1.6,-93,1.6,-132,11.804,-319,1.6,0,1.595,233,2.21,-176,,,,,,,2.547,742,2.547,-65,2.547,-697,2.547,12751,13.567,12974,,
1.606,-120,1.606,-132,11.849,-345,1.606,0,1.6,-233,2.216,-106,,,,,,,2.549,742,2.549,-63,2.549,-695,2.549,12733,13.589,13164,,
1.612,-177,1.612,-129,11.958,12,1.612,53,1.606,-154,2.221,-18,,,,,,,2.552,742,2.552,-61,2.552,-696,2.552,12740,13.589,13164,,
1.617,-149,1.617,-123,12.015,12,1.617,106,1.612,466,2.227,123,,,,,,,2.554,741,2.554,-58,2.554,-696,2.554,12728,13.656,13122,,
1.623,-157,1.623,-106,12.094,186,1.623,299,1.617,1316,2.233,352,,,,,,,2.557,741,2.557,-57,2.557,-692,2.557,12693,13.651,12856,,
1.629,-6,1.629,-85,12.134,127,1.629,370,1.623,1395,2.238,334,,,,,,,2.559,743,2.559,-57,2.559,-690,2.559,12695,13.685,12632,,
1.634,-73,1.634,-65,12.134,127,1.634,352,1.629,1082,2.244,299,,,,,,,2.561,746,2.561,-57,2.561,-690,2.561,12722,13.784,12744,,
1.64,-31,1.64,-51,12.203,-329,1.64,246,1.634,-233,2.25,123,,,,,,,2.564,748,2.564,-60,2.564,-689,2.564,12734,13.873,12485,,
1.646,-117,1.646,-30,12.254,-558,1.646,370,1.64,0,2.255,106,,,,,,,2.566,750,2.566,-60,2.566,-689,2.566,12753,13.887,12581,,
1.651,-25,1.651,-2,12.317,-599,1.651,493,1.646,620,2.261,282,,,,,,,2.569,749,2.569,-61,2.569,-690,2.569,12753,13.925,12372,,
1.657,52,1.657,31,12.391,-365,1.657,581,1.651,1474,2.267,405,,,,,,,2.571,752,2.571,-60,2.571,-688,2.571,12763,13.983,12414,,
1.663,176,1.663,53,12.391,-365,1.663,387,1.657,75,2.272,405,,,,,,,2.573,753,2.573,-59,2.573,-688,2.573,12771,13.99,12550,,
1.669,48,1.669,66,12.419,-384,1.669,229,1.663,-1162,2.278,317,,,,,,,2.576,759,2.576,-60,2.576,-691,2.576,12852,13.99,12550,,
1.674,69,1.674,68,12.494,-220,1.674,35,1.669,-2402,2.289,70,,,,,,,2.578,758,2.578,-59,2.578,-691,2.578,12842,14.038,12423,,
1.68,18,1.68,75,12.533,-246,1.68,123,1.674,-1162,2.295,158,,,,,,,2.581,758,2.581,-57,2.581,-687,2.581,12807,14.034,12887,,
1.686,93,1.686,83,12.709,283,1.686,141,1.68,-387,2.295,158,,,,,,,2.583,758,2.583,-59,2.583,-686,2.583,12800,14.067,12662,,
1.691,130,1.691,92,12.709,283,1.691,158,1.686,541,2.306,282,,,,,,,2.586,758,2.586,-59,2.586,-692,2.586,12851,14.089,12748,,
1.697,100,1.697,97,12.795,133,1.697,88,1.691,-154,2.312,264,,,,,,,2.588,759,2.588,-57,2.588,-691,2.588,12850,14.178,12628,,
1.703,103,1.703,101,12.835,-160,1.703,70,1.697,-312,2.323,70,,,,,,,2.59,757,2.59,-58,2.59,-690,2.59,12824,14.197,12746,,
1.708,88,1.708,102,12.903,-432,1.708,18,1.703,-616,2.336,18,,,,,,,2.593,758,2.593,-58,2.593,-688,2.593,12816,14.243,12509,,
1.714,55,1.714,112,12.938,-464,1.714,176,1.708,387,2.353,194,,,,,,,2.595,760,2.595,-59,2.595,-685,2.595,12811,14.293,12690,,
1.72,123,1.72,124,12.977,-325,1.72,211,1.714,620,2.364,211,,,,,,,2.598,760,2.598,-59,2.598,-685,2.598,12811,14.301,12824,,
1.725,207,1.725,132,12.977,-325,1.725,141,1.72,541,2.381,88,,,,,,,2.6,760,2.6,-58,2.6,-687,2.6,12827,14.313,12720,,
1.731,226,1.731,130,13.057,-269,1.731,-35,1.725,-928,2.398,-211,,,,,,,2.602,759,2.602,-57,2.602,-686,2.602,12808,14.329,12819,,
1.737,23,1.737,117,13.103,-122,1.737,-229,1.731,-1936,2.409,-211,,,,,,,2.605,759,2.605,-56,2.605,-688,2.605,12824,14.329,12819,,
1.743,117,1.743,104,13.194,-85,1.743,-229,1.737,-1628,2.421,123,,,,,,,2.607,758,2.607,-53,2.607,-687,2.607,12805,14.44,12782,,
1.749,63,1.749,99,13.194,-85,1.749,-88,1.743,-233,2.427,176,,,,,,,2.61,758,2.61,-54,2.61,-688,2.61,12814,14.522,13067,,
1.755,122,1.755,90,13.411,503,1.755,-158,1.749,312,2.432,88,,,,,,,2.612,757,2.612,-51,2.612,-687,2.612,12794,14.56,12898,,
1.76,116,1.76,82,13.53,585,1.76,-141,1.755,387,2.444,70,,,,,,,2.614,759,2.614,-50,2.614,-685,2.614,12795,14.628,12961,,
1.766,7,1.766,74,13.575,750,1.766,-141,1.76,-233,2.461,194,,,,,,,2.617,759,2.617,-50,2.617,-683,2.617,12779,14.69,12772,,
1.772,110,1.772,70,13.575,750,1.772,-70,1.766,387,2.472,158,,,,,,,2.619,758,2.619,-50,2.619,-683,2.619,12769,14.702,12805,,
1.777,74,1.777,69,13.666,880,1.777,-18,1.772,541,2.478,0,,,,,,,2.622,757,2.622,-53,2.622,-684,2.622,12770,14.716,13036,,
1.783,-62,1.783,78,13.695,834,1.783,158,1.777,1316,2.483,0,,,,,,,2.624,756,2.624,-51,2.624,-678,2.624,12710,14.716,13036,,
1.789,113,1.789,94,13.724,674,1.789,282,1.783,1549,2.506,176,,,,,,,2.626,757,2.626,-49,2.626,-678,2.626,12718,14.796,12728,,
1.794,125,1.794,115,13.809,-202,1.794,370,1.789,1707,2.517,440,,,,,,,2.629,757,2.629,-48,2.629,-678,2.629,12717,14.852,12949,,
1.8,251,1.8,131,13.849,-427,1.8,282,1.794,546,2.546,493,,,,,,,2.631,757,2.631,-54,2.631,-679,2.631,12729,14.878,12814,,
1.806,158,1.806,133,13.911,-476,1.806,35,1.8,-1087,2.569,264,,,,,,,2.634,758,2.634,-53,2.634,-675,2.634,12705,14.941,12876,,
1.811,122,1.811,121,13.911,-476,1.811,-211,1.806,-2556,2.574,70,,,,,,,2.636,760,2.636,-52,2.636,-675,2.636,12723,14.979,12697,,
1.817,55,1.817,117,14.037,-287,1.817,-70,1.811,-1549,2.591,-106,,,,,,,2.638,764,2.638,-53,2.638,-678,2.638,12785,15.071,12748,,
1.823,-36,1.823,131,14.128,-310,1.823,246,1.817,928,2.591,-106,,,,,,,2.641,766,2.641,-50,2.641,-679,2.641,12810,15.071,12748,,
1.828,160,1.828,161,14.128,-310,1.828,528,1.823,3252,2.603,370,,,,,,,2.643,769,2.643,-48,2.643,-676,2.643,12813,15.131,12715,,
1.834,340,1.834,195,14.242,14,1.834,598,1.828,2939,2.614,493,,,,,,,2.646,768,2.646,-45,2.646,-677,2.646,12810,15.157,12560,,
1.84,203,1.84,220,14.339,-310,1.84,440,1.834,854,2.625,827,,,,,,,2.648,773,2.648,-45,2.648,-677,2.648,12857,15.164,12605,,
1.845,273,1.845,230,14.384,-602,1.845,176,1.84,-1549,3.224,968,,,,,,,2.65,772,2.65,-48,2.65,-677,2.65,12849,15.16,12865,,
1.851,236,1.851,236,14.441,-590,1.851,106,1.845,-2165,3.23,933,,,,,,,2.653,774,2.653,-46,2.653,-683,2.653,12916,15.194,12932,,
1.857,241,1.857,238,14.492,-406,1.857,35,1.851,-1782,3.241,194,,,,,,,2.655,773,2.655,-47,2.655,-681,2.655,12891,15.278,12847,,
1.862,299,1.862,231,14.492,-406,1.862,-123,1.857,-1316,3.264,194,,,,,,,2.658,777,2.658,-48,2.658,-680,2.658,12921,15.343,12980,,
1.868,107,1.868,227,14.532,-408,1.868,-70,1.862,-774,3.275,-18,,,,,,,2.66,778,2.66,-46,2.66,-678,2.66,12912,15.391,12853,,
1.874,196,1.874,235,14.567,-283,1.874,141,1.868,466,3.281,18,,,,,,,2.662,778,2.662,-47,2.662,-681,2.662,12938,15.441,12891,,
1.88,274,1.88,248,14.59,-335,1.88,229,1.874,1549,3.287,-158,,,,,,,2.665,778,2.665,-45,2.665,-679,2.665,12920,15.47,13067,,
1.885,319,1.885,260,14.675,-64,1.885,211,1.88,1236,3.321,-387,,,,,,,2.667,776,2.667,-43,2.667,-682,2.667,12925,15.482,12943,,
1.891,265,1.891,269,14.732,20,1.891,158,1.885,75,3.332,-70,,,,,,,2.67,777,2.67,-43,2.67,-682,2.67,12934,15.482,12943,,
1.897,258,1.897,269,14.732,20,1.897,0,1.891,-1008,3.338,-18,,,,,,,2.672,775,2.672,-42,2.672,-682,2.672,12915,15.516,12932,,
1.902,365,1.902,265,14.789,-110,1.902,-70,1.897,-1236,3.349,-299,,,,,,,2.674,776,2.674,-44,2.674,-682,2.674,12925,15.511,12828,,
1.908,163,1.908,265,14.846,-512,1.908,0,1.902,-695,3.366,-352,,,,,,,2.677,776,2.677,-43,2.677,-684,2.677,12941,15.518,12773,,
1.914,199,1.914,265,14.903,-654,1.914,0,1.908,0,3.378,-528,,,,,,,3.03,718,3.03,-86,3.03,-731,3.03,12853,15.609,12852,,
1.919,323,1.919,276,14.903,-654,1.919,194,1.914,1162,3.389,-510,,,,,,,3.033,717,3.033,-85,3.033,-732,3.033,12852,15.629,12981,,
1.925,282,1.925,297,15.073,-282,1.925,370,1.919,1628,3.395,-651,,,,,,,3.035,720,3.035,-85,3.035,-734,3.035,12896,15.672,12773,,
1.931,303,1.931,313,15.114,-305,1.931,282,1.925,1241,3.406,-669,,,,,,,3.037,719,3.037,-82,3.037,-732,3.037,12867,15.696,12874,,
1.936,410,1.936,325,15.176,-68,1.936,211,1.931,75,3.429,-493,,,,,,,3.04,719,3.04,-81,3.04,-736,3.04,12901,15.715,12738,,
1.942,236,1.942,345,15.176,-68,1.942,352,1.936,-79,3.435,-229,,,,,,,3.042,719,3.042,-85,3.042,-735,3.042,12896,15.72,12827,,
1.948,365,1.948,362,15.369,190,1.948,299,1.942,75,3.446,88,,,,,,,3.045,721,3.045,-83,3.045,-732,3.045,12885,15.819,12647,,
1.953,480,1.953,378,15.421,394,1.953,282,1.948,312,3.457,-18,,,,,,,3.047,721,3.047,-81,3.047,-732,3.047,12883,15.835,12801,,
1.959,315,1.959,396,15.467,274,1.959,317,1.953,-154,3.463,-176,,,,,,,3.049,719,3.049,-81,3.049,-734,3.049,12883,15.864,12686,,
1.965,423,1.965,407,15.581,-673,1.965,194,1.959,-462,3.474,-317,,,,,,,3.052,720,3.052,-79,3.052,-735,3.052,12899,15.864,12686,,
1.97,440,1.97,416,15.615,-786,1.97,158,1.965,-546,3.474,-317,,,,,,,3.054,718,3.054,-79,3.054,-731,3.054,12846,15.915,12961,,
1.976,438,1.976,426,15.615,-786,1.976,176,1.97,-620,3.486,-246,,,,,,,3.057,718,3.057,-81,3.057,-729,3.057,12830,16.014,12703,,
1.982,471,1.982,427,15.848,-424,1.982,18,1.976,-774,3.497,53,,,,,,,3.059,717,3.059,-81,3.059,-727,3.059,12804,16.146,12770,,
1.987,431,1.987,419,15.848,-424,1.987,-141,1.982,-1316,3.503,53,,,,,,,3.061,719,3.061,-79,3.061,-725,3.061,12802,16.17,12640,,
1.993,376,1.993,416,15.945,-67,1.993,-53,1.987,-1008,3.508,176,,,,,,,3.064,718,3.064,-79,3.064,-727,3.064,12810,16.256,12695,,
1.999,309,1.999,422,16.127,420,1.999,106,1.993,387,3.514,422,,,,,,,3.066,718,3.066,-81,3.066,-728,3.066,12821,16.256,12695,,
2.005,457,2.005,438,16.162,419,2.005,282,1.999,1861,3.521,546,,,,,,,3.069,718,3.069,-80,3.069,-734,3.069,12874,16.29,12545,,
2.01,515,2.01,457,16.162,419,2.01,334,2.005,1703,3.532,405,,,,,,,3.071,719,3.071,-80,3.071,-733,3.071,12873,16.285,12852,,
2.016,503,2.016,469,16.23,742,2.016,211,2.01,462,3.538,141,,,,,,,3.073,723,3.073,-80,3.073,-735,3.073,12926,16.419,13151,,
2.022,462,2.022,470,16.259,684,2.022,18,2.016,-1162,3.543,35,,,,,,,3.076,722,3.076,-77,3.076,-733,3.076,12897,16.441,13016,,
2.027,493,2.027,463,16.384,1023,2.027,-123,2.022,-2011,3.555,35,,,,,,,3.078,722,3.078,-78,3.078,-734,3.078,12907,16.465,13087,,
2.033,472,2.033,449,16.424,998,2.033,-246,2.027,-2011,3.56,-141,,,,,,,3.081,722,3.081,-78,3.081,-733,3.081,12898,16.487,12801,,
2.039,458,2.039,423,16.424,998,2.039,-458,2.033,-2094,3.566,-211,,,,,,,3.083,724,3.083,-77,3.083,-733,3.083,12914,16.496,12955,,
2.045,421,2.045,387,16.578,1263,2.045,-634,2.039,-2248,3.572,-106,,,,,,,3.085,726,3.085,-81,3.085,-733,3.085,12936,16.518,12911,,
2.051,343,2.051,343,16.606,1202,2.051,-774,2.045,-2323,3.583,528,,,,,,,3.088,726,3.088,-79,3.088,-735,3.088,12951,16.544,13049,,
2.056,273,2.056,298,16.663,1324,2.056,-792,2.051,-1470,3.589,616,,,,,,,3.09,728,3.09,-76,3.09,-736,3.09,12975,16.559,12926,,
2.062,225,2.062,255,16.663,1324,2.062,-757,2.056,-541,3.6,-70,,,,,,,3.093,731,3.093,-77,3.093,-737,3.093,13011,16.595,12923,,
2.068,218,2.068,216,16.714,1278,2.068,-686,2.062,387,3.611,-422,,,,,,,3.095,730,3.095,-76,3.095,-735,3.095,12984,16.621,13166,,
2.073,224,2.073,175,16.885,1497,2.073,-722,2.068,308,3.617,-405,,,,,,,3.098,732,3.098,-76,3.098,-737,3.098,13019,16.679,13081,,
2.079,135,2.079,130,16.931,1372,2.079,-792,2.073,-154,3.623,-194,,,,,,,3.1,732,3.1,-74,3.1,-737,3.1,13017,16.679,13081,,
2.085,51,2.085,86,16.931,1372,2.085,-774,2.079,-387,3.634,422,,,,,,,3.102,732,3.102,-73,3.102,-734,3.102,12990,16.715,13204,,
2.091,20,2.091,47,16.971,1454,2.091,-686,2.085,158,3.64,528,,,,,,,3.105,732,3.105,-71,3.105,-732,3.105,12970,16.71,12882,,
2.096,32,2.096,12,17.039,1413,2.096,-616,2.091,774,3.646,458,,,,,,,3.107,730,3.107,-71,3.107,-738,3.107,13006,16.715,12808,,
2.102,-17,2.102,-21,17.074,1213,2.102,-581,2.096,849,3.657,88,,,,,,,3.11,730,3.11,-67,3.11,-737,3.11,12994,16.734,12892,,
2.108,-125,2.108,-49,17.159,167,2.108,-493,2.102,849,3.668,88,,,,,,,3.112,724,3.112,-66,3.112,-738,3.112,12949,16.909,12624,,
2.113,-42,2.113,-75,17.21,-257,2.113,-458,2.108,695,3.674,0,,,,,,,3.114,724,3.114,-62,3.114,-739,3.114,12955,17.008,12743,,
2.119,-66,2.119,-99,17.25,-368,2.119,-422,2.113,700,3.697,264,,,,,,,3.117,729,3.117,-63,3.117,-736,3.117,12973,17.042,12562,,
2.125,-120,2.125,-128,17.25,-368,2.125,-510,2.119,-75,3.702,123,,,,,,,3.119,730,3.119,-58,3.119,-736,3.119,12978,17.083,12817,,
2.13,-185,2.13,-161,17.318,-255,2.13,-581,2.125,-541,3.708,88,,,,,,,3.122,732,3.122,-58,3.122,-736,3.122,12996,17.083,12817,,
2.136,-135,2.136,-198,17.381,-421,2.136,-651,2.13,-1008,3.719,282,,,,,,,3.124,731,3.124,-59,3.124,-734,3.124,12970,17.111,12711,,
2.142,-294,2.142,-230,17.41,-294,2.142,-563,2.136,-233,3.736,-88,,,,,,,3.126,738,3.126,-57,3.126,-727,3.126,12969,17.119,12773,,
2.147,-241,2.147,-263,17.483,-280,2.147,-581,2.142,0,3.759,211,,,,,,,3.129,738,3.129,-53,3.129,-725,3.129,12949,17.114,12871,,
2.153,-361,2.153,-287,17.483,-280,2.153,-422,2.147,1008,3.759,211,,,,,,,3.131,737,3.131,-54,3.131,-724,3.131,12932,17.148,12971,,
2.159,-293,2.159,-301,17.637,176,2.159,-246,2.153,1395,3.771,194,,,,,,,3.134,737,3.134,-52,3.134,-722,3.134,12913,17.203,12865,,
2.164,-362,2.164,-304,17.694,159,2.164,-53,2.159,2323,3.788,352,,,,,,,3.136,737,3.136,-53,3.136,-723,3.136,12922,17.278,12909,,
2.17,-271,2.17,-307,17.791,482,2.17,-53,2.164,1624,3.793,334,,,,,,,3.138,738,3.138,-55,3.138,-723,3.138,12933,17.304,13049,,
2.176,-278,2.176,-307,17.791,482,2.176,0,2.17,1082,3.805,-35,,,,,,,3.141,738,3.141,-53,3.141,-729,3.141,12984,17.335,12904,,
2.181,-334,2.181,-312,17.974,791,2.181,-88,2.176,-154,3.81,-123,,,,,,,3.143,737,3.143,-52,3.143,-728,3.143,12965,17.335,12904,,
2.187,-277,2.187,-321,18.019,673,2.187,-158,2.181,-462,3.828,-35,,,,,,,3.146,739,3.146,-53,3.146,-729,3.146,12993,17.465,12982,,
2.193,-295,2.193,-338,18.082,105,2.193,-299,2.187,-1316,3.868,-405,,,,,,,3.148,738,3.148,-54,3.148,-728,3.148,12976,17.494,12939,,
2.198,-436,2.198,-353,18.144,-315,2.198,-264,2.193,-774,3.885,-334,,,,,,,3.15,742,3.15,-54,3.15,-724,3.15,12976,17.489,12871,,
2.204,-333,2.204,-370,18.144,-315,2.204,-299,2.198,-620,3.891,-405,,,,,,,3.153,741,3.153,-51,3.153,-724,3.153,12965,17.52,12711,,
2.21,-413,2.21,-380,18.172,-400,2.21,-176,2.204,541,3.896,-334,,,,,,,3.155,741,3.155,-52,3.155,-723,3.155,12957,17.537,12825,,
2.216,-362,2.216,-386,18.224,-391,2.216,-106,2.21,695,3.925,-440,,,,,,,3.158,741,3.158,-54,3.158,-723,3.158,12959,17.552,12698,,
2.221,-449,2.221,-387,18.298,-199,2.221,-18,2.216,1236,3.93,-282,,,,,,,3.16,745,3.16,-54,3.16,-723,3.16,12994,17.568,12760,,
2.227,-414,2.227,-380,18.349,-261,2.227,123,2.221,1316,3.936,-282,,,,,,,3.162,747,3.162,-53,3.162,-724,3.162,13020,17.595,12583,,
2.233,-387,2.233,-360,18.383,-133,2.233,352,2.227,2015,3.953,-475,,,,,,,3.165,750,3.165,-54,3.165,-723,3.165,13039,17.655,12505,,
2.238,-305,2.238,-341,18.383,-133,2.238,334,2.233,1549,3.965,-264,,,,,,,3.167,749,3.167,-47,3.167,-723,3.167,13026,17.708,12675,,
2.244,-230,2.244,-324,18.486,-41,2.244,299,2.238,774,3.982,581,,,,,,,3.17,753,3.17,-45,3.17,-726,3.17,13087,17.722,12531,,
2.25,-354,2.25,-317,18.589,239,2.25,123,2.244,-1008,3.993,510,,,,,,,3.172,754,3.172,-43,3.172,-724,3.172,13078,17.763,12622,,
2.255,-328,2.255,-311,18.645,243,2.255,106,2.25,-1003,4.004,-18,,,,,,,3.174,754,3.174,-43,3.174,-728,3.174,13112,17.785,12461,,
2.261,-362,2.261,-295,18.645,243,2.261,282,2.255,-75,4.016,-246,,,,,,,3.177,754,3.177,-43,3.177,-726,3.177,13095,17.785,12461,,
2.267,-309,2.267,-272,18.765,-686,2.267,405,2.261,1241,4.021,-229,,,,,,,3.179,752,3.179,-42,3.179,-724,3.179,13059,17.878,12458,,
2.272,-154,2.272,-249,18.81,-864,2.272,405,2.267,1316,4.05,352,,,,,,,3.182,754,3.182,-44,3.182,-724,3.182,13078,17.886,12492,,
2.278,-206,2.278,-231,18.964,-644,2.278,317,2.272,154,4.055,352,,,,,,,3.184,754,3.184,-44,3.184,-724,3.184,13078,17.881,12886,,
2.284,-232,2.284,-220,18.993,-681,2.284,194,2.278,-928,4.067,0,,,,,,,3.186,753,3.186,-43,3.186,-723,3.186,13060,17.905,12974,,
2.289,-192,2.289,-216,18.993,-681,2.289,70,2.284,-1474,4.067,0,,,,,,,3.189,755,3.189,-41,3.189,-726,3.189,13103,17.936,12877,,
2.295,-248,2.295,-207,19.089,-481,2.295,158,2.289,-700,4.084,246,,,,,,,3.191,756,3.191,-39,3.191,-724,3.191,13094,17.948,12995,,
2.301,-221,2.301,-196,19.153,-252,2.301,194,2.295,0,4.107,194,,,,,,,3.194,752,3.194,-39,3.194,-722,3.194,13040,18.001,12809,,
2.306,-202,2.306,-180,19.227,-114,2.306,282,2.301,933,4.113,53,,,,,,,3.196,753,3.196,-33,3.196,-723,3.196,13055,18.102,13033,,
2.312,-108,2.312,-165,19.261,-150,2.312,264,2.306,466,4.119,106,,,,,,,3.198,754,3.198,-34,3.198,-722,3.198,13056,18.136,12855,,
2.318,-139,2.318,-153,19.34,140,2.318,211,2.312,75,4.124,0,,,,,,,3.201,753,3.201,-31,3.201,-723,3.201,13055,18.181,13168,,
2.323,-121,2.323,-149,19.34,140,2.323,70,2.318,-933,4.141,123,,,,,,,3.203,756,3.203,-32,3.203,-720,3.203,13056,18.191,13061,,
2.329,-183,2.329,-147,19.374,53,2.329,35,2.323,-1008,4.147,35,,,,,,,3.206,756,3.206,-26,3.206,-719,3.206,13045,18.261,13077,,
2.336,-122,2.336,-146,19.432,-425,2.336,18,2.329,-849,4.153,123,,,,,,,3.208,754,3.208,-24,3.208,-724,3.208,13070,18.261,13077,,
2.341,-183,2.341,-141,19.523,-788,2.341,88,2.336,79,4.159,70,,,,,,,3.21,755,3.21,-24,3.21,-722,3.21,13062,18.273,12972,,
2.347,-132,2.347,-134,19.608,-683,2.347,123,2.341,387,4.181,211,,,,,,,3.213,755,3.213,-24,3.213,-722,3.213,13062,18.268,12861,,
2.353,-134,2.353,-123,19.608,-683,2.353,194,2.347,774,4.187,370,,,,,,,3.215,757,3.215,-23,3.215,-721,3.215,13071,18.278,12830,,
2.358,-85,2.358,-112,19.653,-479,2.358,194,2.353,466,4.198,282,,,,,,,3.218,757,3.218,-23,3.218,-725,3.218,13105,18.34,12994,,
2.364,-114,2.364,-100,19.779,-282,2.364,211,2.358,387,4.215,-158,,,,,,,3.22,759,3.22,-22,3.22,-724,3.22,13115,18.41,12758,,
2.37,-90,2.37,-90,19.887,95,2.37,176,2.364,-79,4.232,53,,,,,,,3.223,759,3.223,-20,3.223,-721,3.223,13088,18.525,12842,,
2.375,-69,2.375,-82,19.887,95,2.375,141,2.37,-233,4.249,405,,,,,,,3.225,758,3.225,-13,3.225,-719,3.225,13061,18.59,12665,,
2.381,-81,2.381,-77,19.996,243,2.381,88,2.375,-541,4.266,-35,,,,,,,3.227,758,3.227,-14,3.227,-722,3.227,13087,18.609,12800,,
2.387,-36,2.387,-77,20.036,64,2.387,0,2.381,-774,4.278,211,,,,,,,3.23,757,3.23,-15,3.23,-721,3.23,13069,18.626,12706,,
2.392,-84,2.392,-82,20.075,-282,2.392,-88,2.387,-1008,4.289,246,,,,,,,3.232,756,3.232,-15,3.232,-717,3.232,13026,18.626,12706,,
2.398,-35,2.398,-94,20.098,-388,2.398,-211,2.392,-1316,4.301,528,,,,,,,3.235,757,3.235,-17,3.235,-718,3.235,13044,18.662,12778,,
2.404,-162,2.404,-106,20.189,-440,2.404,-211,2.398,-928,4.306,510,,,,,,,3.237,756,3.237,-17,3.237,-716,3.237,13017,18.665,12796,,
2.409,-118,2.409,-118,20.189,-440,2.409,-211,2.404,-541,4.323,35,,,,,,,3.239,756,3.239,-17,3.239,-714,3.239,13000,18.661,12906,,
2.415,-206,2.415,-119,20.286,-223,2.415,-18,2.409,849,4.329,35,,,,,,,3.242,757,3.242,-16,3.242,-712,3.242,12992,18.663,12931,,
2.421,-72,2.421,-112,20.32,-250,2.421,123,2.415,1470,4.335,158,,,,,,,3.244,756,3.244,-17,3.244,-710,3.244,12966,18.721,12823,,
2.427,-119,2.427,-102,20.417,-99,2.427,176,2.421,1703,4.352,88,,,,,,,3.247,758,3.247,-17,3.247,-714,3.247,13018,18.786,12978,,
2.432,-25,2.432,-97,20.445,63,2.432,88,2.427,466,4.363,246,,,,,,,3.249,759,3.249,-15,3.249,-712,3.249,13010,18.88,12871,,
2.438,-134,2.438,-90,20.445,63,2.438,123,2.432,0,4.369,53,,,,,,,3.251,760,3.251,-16,3.251,-713,3.251,13028,18.892,12984,,
2.444,-110,2.444,-86,20.508,237,2.444,70,2.438,-466,4.369,53,,,,,,,3.254,761,3.254,-12,3.254,-711,3.254,13019,18.892,12984,,
2.449,-31,2.449,-77,20.583,226,2.449,158,2.444,308,4.374,-246,,,,,,,3.256,759,3.256,-10,3.256,-710,3.256,12992,19.007,13017,,
2.455,-135,2.455,-67,20.634,-19,2.455,176,2.449,233,4.391,-757,,,,,,,3.259,760,3.259,-10,3.259,-710,3.259,13001,19.002,12868,,
2.461,-38,2.461,-56,20.673,-360,2.461,194,2.455,546,4.403,-686,,,,,,,3.261,760,3.261,-11,3.261,-711,3.261,13010,19.084,13070,,
2.466,-18,2.466,-46,20.719,-622,2.466,176,2.461,79,4.409,-493,,,,,,,3.263,762,3.263,-7,3.263,-710,3.263,13019,19.158,12687,,
2.472,-27,2.472,-37,20.747,-704,2.472,158,2.466,-79,4.415,-493,,,,,,,3.266,764,3.266,-8,3.266,-711,3.266,13046,19.36,12686,,
2.478,-9,2.478,-37,20.747,-704,2.478,0,2.472,-854,4.421,-546,,,,,,,3.268,766,3.268,-11,3.268,-712,3.268,13073,19.377,12790,,
2.483,-66,2.483,-37,20.85,-650,2.483,0,2.478,-774,4.426,-722,,,,,,,3.271,771,3.271,-9,3.271,-710,3.271,13102,19.377,12790,,
2.489,-50,2.489,-35,20.907,-488,2.489,35,2.483,-541,4.432,-563,,,,,,,3.273,771,3.273,-9,3.273,-710,3.273,13102,19.403,12668,,
2.495,-29,2.495,-30,20.958,-460,2.495,88,2.489,387,4.46,-915,,,,,,,3.275,769,3.275,-10,3.275,-707,3.275,13058,19.399,12846,,
2.5,2,2.5,-23,20.987,-308,2.5,123,2.495,541,4.483,-792,,,,,,,3.278,769,3.278,-8,3.278,-708,3.278,13066,19.452,12970,,
2.506,-77,2.506,-13,21.089,-190,2.506,176,2.5,620,4.489,-634,,,,,,,3.28,770,3.28,-6,3.28,-706,3.28,13059,19.528,12870,,
2.512,-8,2.512,5,21.089,-190,2.512,317,2.506,1008,4.5,-616,,,,,,,3.283,771,3.283,-12,3.283,-707,3.283,13077,19.543,12748,,
2.517,14,2.517,30,21.129,18,2.517,440,2.512,1395,4.517,-246,,,,,,,3.285,772,3.285,-11,3.285,-709,3.285,13103,19.692,12885,,
2.523,105,2.523,55,21.198,138,2.523,440,2.517,1162,4.523,-282,,,,,,,3.287,773,3.287,-14,3.287,-710,3.287,13121,19.714,12766,,
2.529,72,2.529,82,21.317,-778,2.529,475,2.523,695,4.529,-510,,,,,,,3.29,773,3.29,-12,3.29,-714,3.29,13155,19.757,13017,,
2.534,52,2.534,108,21.38,-1023,2.534,458,2.529,79,4.534,-563,,,,,,,3.292,773,3.292,-14,3.292,-715,3.292,13163,19.757,13017,,
2.54,196,2.54,134,21.38,-1023,2.54,458,2.534,79,4.54,-493,,,,,,,3.295,775,3.295,-15,3.295,-718,3.295,13207,19.781,12988,,
2.546,148,2.546,162,21.471,-707,2.546,493,2.54,79,4.546,-317,,,,,,,3.297,774,3.297,-12,3.297,-716,3.297,13181,19.79,12908,,
2.552,166,2.552,189,21.471,-707,2.552,475,2.546,75,4.563,-158,,,,,,,3.299,774,3.299,-12,3.299,-718,3.299,13198,19.786,12858,,
2.557,251,2.557,208,21.528,-629,2.557,334,2.552,-546,4.574,106,,,,,,,3.302,773,3.302,-10,3.302,-718,3.302,13188,19.803,12928,,
2.563,233,2.563,227,21.681,-174,2.563,334,2.557,-700,4.585,246,,,,,,,3.304,771,3.304,-11,3.304,-719,3.304,13179,19.812,12798,,
2.569,232,2.569,242,21.721,-152,2.569,264,2.563,-928,4.603,246,,,,,,,3.307,771,3.307,-9,3.307,-719,3.307,13178,19.86,12848,,
2.574,286,2.574,246,21.83,259,2.574,70,2.569,-1162,4.614,70,,,,,,,3.309,771,3.309,-8,3.309,-715,3.309,13144,19.894,12713,,
2.58,327,2.58,245,21.858,211,2.58,-18,2.574,-1549,4.637,229,,,,,,,3.311,772,3.311,-10,3.311,-715,3.311,13154,20.021,12891,,
2.586,148,2.586,244,21.932,-178,2.586,-18,2.58,-1241,4.654,458,,,,,,,3.314,770,3.314,-8,3.314,-718,3.314,13161,20.079,12590,,
2.591,250,2.591,238,21.961,-479,2.591,-106,2.586,-774,4.654,458,,,,,,,3.316,771,3.316,-6,3.316,-717,3.316,13161,20.079,12590,,
2.597,199,2.597,244,21.961,-479,2.597,106,2.591,546,4.665,229,,,,,,,3.319,769,3.319,-7,3.319,-718,3.319,13151,20.178,12612,,
2.603,227,2.603,265,22,-745,2.603,370,2.597,1707,4.682,176,,,,,,,3.321,768,3.321,-4,3.321,-716,3.321,13125,20.173,12866,,
2.608,272,2.608,292,22.058,-789,2.608,475,2.603,2556,4.706,-141,,,,,,,3.323,772,3.323,-3,3.323,-718,3.323,13179,20.233,13010,,
2.614,424,2.614,320,22.121,-589,2.614,493,2.608,1703,4.723,106,,,,,,,3.326,772,3.326,-1,3.326,-717,3.326,13170,20.413,12879,,
2.62,245,2.62,359,22.228,-506,2.62,686,2.614,1390,4.728,317,,,,,,,3.328,777,3.328,-1,3.328,-711,3.328,13165,20.447,13090,,
2.625,270,2.625,406,22.228,-506,2.625,827,2.62,1549,4.734,422,,,,,,,3.331,776,3.331,0,3.331,-710,3.331,13147,20.524,12836,,
3.224,577,3.224,461,22.417,100,3.224,968,2.625,2090,4.74,299,,,,,,,3.333,778,3.333,0,3.333,-714,3.333,13200,20.524,12836,,
3.23,593,3.23,514,22.547,416,3.23,933,3.224,1087,4.757,-352,,,,,,,3.335,777,3.335,-1,3.335,-712,3.335,13174,20.557,12958,,
3.236,576,3.236,546,22.547,416,3.236,563,3.23,-1162,4.762,-282,,,,,,,3.338,777,3.338,-1,3.338,-712,3.338,13174,20.565,12836,,
3.241,627,3.241,557,22.724,656,3.241,194,3.236,-3406,4.779,282,,,,,,,3.34,776,3.34,-2,3.34,-712,3.34,13164,20.58,12938,,
3.247,494,3.247,569,22.793,303,3.247,211,3.241,-3177,4.796,634,,,,,,,3.343,774,3.343,-1,3.343,-708,3.343,13112,20.669,12921,,
3.253,547,3.253,579,22.849,-213,3.253,176,3.247,-1703,4.802,616,,,,,,,3.345,775,3.345,-1,3.345,-709,3.345,13130,20.734,12793,,
3.258,638,3.258,588,22.849,-213,3.258,158,3.253,-158,4.819,-211,,,,,,,3.348,772,3.348,0,3.348,-713,3.348,13136,20.772,12903,,
3.264,580,3.264,599,22.9,-407,3.264,194,3.258,-75,4.825,-387,,,,,,,3.35,771,3.35,-1,3.35,-714,3.35,13135,20.772,12903,,
3.27,623,3.27,603,22.958,-398,3.27,70,3.264,-466,4.831,-370,,,,,,,3.352,774,3.352,-2,3.352,-711,3.352,13138,20.912,12710,,
3.275,642,3.275,602,23.049,-220,3.275,-18,3.27,-774,4.836,-246,,,,,,,3.355,776,3.355,1,3.355,-711,3.355,13156,20.907,12847,,
3.281,562,3.281,603,23.128,-238,3.281,18,3.275,-774,4.848,176,,,,,,,3.357,776,3.357,3,3.357,-711,3.357,13156,20.919,12875,,
3.287,636,3.287,594,23.128,-238,3.287,-158,3.281,-1003,4.865,528,,,,,,,3.36,777,3.36,-1,3.36,-709,3.36,13148,21.107,12951,,
3.292,620,3.292,582,23.368,549,3.292,-211,3.287,-849,4.882,510,,,,,,,3.362,775,3.362,0,3.362,-711,3.362,13147,21.148,12816,,
3.298,496,3.298,569,23.459,653,3.298,-229,3.292,-1087,4.893,158,,,,,,,3.364,774,3.364,1,3.364,-710,3.364,13129,21.165,12902,,
3.304,563,3.304,556,23.459,653,3.304,-229,3.298,-312,4.916,598,,,,,,,3.367,774,3.367,3,3.367,-711,3.367,13138,21.205,12666,,
3.31,636,3.31,539,23.511,543,3.31,-299,3.304,-387,4.927,246,,,,,,,3.369,774,3.369,9,3.369,-712,3.369,13146,21.217,12766,,
3.315,462,3.315,522,23.55,248,3.315,-299,3.31,-308,4.927,246,,,,,,,3.372,773,3.372,8,3.372,-713,3.372,13146,21.217,12766,,
3.321,538,3.321,500,23.596,59,3.321,-387,3.315,-695,4.939,106,,,,,,,3.374,774,3.374,10,3.374,-711,3.374,13138,21.273,12639,,
3.327,338,3.327,487,23.653,67,3.327,-229,3.321,308,4.95,123,,,,,,,3.376,774,3.376,11,3.376,-715,3.376,13172,21.268,12866,,
3.332,554,3.332,483,23.698,230,3.332,-70,3.327,1008,4.961,0,,,,,,,3.379,776,3.379,5,3.379,-716,3.379,13198,21.285,12944,,
3.338,493,3.338,482,23.721,178,3.338,-18,3.332,1624,4.979,352,,,,,,,3.381,779,3.381,7,3.381,-716,3.381,13226,21.29,12830,,
3.344,501,3.344,471,23.721,178,3.344,-194,3.338,154,4.985,370,,,,,,,3.384,778,3.384,4,3.384,-714,3.384,13200,21.352,12623,,
3.349,511,3.349,454,23.761,351,3.349,-299,3.344,-1008,4.996,88,,,,,,,3.386,780,3.386,4,3.386,-718,3.386,13252,21.376,12759,,
3.355,331,3.355,437,23.807,337,3.355,-299,3.349,-1236,5.008,264,,,,,,,3.388,779,3.388,9,3.388,-718,3.388,13243,21.4,12606,,
3.361,458,3.361,419,23.864,577,3.361,-317,3.355,-541,5.013,246,,,,,,,3.391,777,3.391,11,3.391,-713,3.391,13183,21.593,12683,,
3.366,450,3.366,399,23.915,588,3.366,-352,3.361,-233,5.025,35,,,,,,,3.393,779,3.393,13,3.393,-711,3.393,13185,21.607,12566,,
3.372,365,3.372,373,23.983,766,3.372,-458,3.366,-700,5.036,123,,,,,,,3.396,778,3.396,13,3.396,-708,3.396,13150,21.607,12566,,
3.378,320,3.378,343,24.034,720,3.378,-528,3.372,-928,5.053,-194,,,,,,,3.398,777,3.398,14,3.398,-709,3.398,13149,21.641,12677,,
3.383,332,3.383,314,24.034,720,3.383,-510,3.378,-695,5.07,-282,,,,,,,3.4,779,3.4,10,3.4,-709,3.4,13167,21.643,12783,,
3.389,279,3.389,285,24.154,40,3.389,-510,3.383,-229,5.076,-405,,,,,,,3.403,778,3.403,11,3.403,-712,3.403,13183,21.66,12822,,
3.395,319,3.395,248,24.188,132,3.395,-651,3.389,-541,5.087,-370,,,,,,,3.405,778,3.405,10,3.405,-709,3.405,13158,21.655,12882,,
3.4,147,3.4,212,24.222,86,3.4,-634,3.395,-546,5.098,-546,,,,,,,3.408,779,3.408,12,3.408,-708,3.408,13159,21.659,12907,,
3.406,158,3.406,174,24.279,278,3.406,-669,3.4,-700,5.121,-387,,,,,,,3.41,779,3.41,12,3.41,-711,3.41,13184,21.897,12852,,
3.412,199,3.412,138,24.279,278,3.412,-634,3.406,75,5.127,-651,,,,,,,3.412,778,3.412,12,3.412,-711,3.412,13175,21.897,12852,,
3.417,66,3.417,107,24.353,298,3.417,-546,3.412,387,5.138,-757,,,,,,,3.415,780,3.415,10,3.415,-709,3.415,13177,22.061,13123,,
3.423,44,3.423,77,24.541,756,3.423,-528,3.417,620,5.155,-581,,,,,,,3.417,779,3.417,10,3.417,-708,3.417,13159,22.068,13111,,
3.429,98,3.429,49,24.541,756,3.429,-493,3.423,620,5.172,-634,,,,,,,3.42,779,3.42,11,3.42,-709,3.42,13167,22.064,12872,,
3.435,-70,3.435,36,24.627,793,3.435,-229,3.429,1395,5.195,-510,,,,,,,3.422,780,3.422,11,3.422,-710,3.422,13185,22.073,12732,,
3.44,-13,3.44,32,24.672,683,3.44,-70,3.435,2015,5.206,-317,,,,,,,3.424,780,3.424,11,3.424,-709,3.424,13177,22.1,12636,,
3.446,64,3.446,37,24.747,-47,3.446,88,3.44,2556,5.218,123,,,,,,,3.427,780,3.427,13,3.427,-708,3.427,13169,22.16,12629,,
3.452,98,3.452,40,24.792,-348,3.452,53,3.446,1241,5.229,422,,,,,,,3.429,780,3.429,13,3.429,-710,3.429,13185,22.172,12747,,
3.457,22,3.457,39,24.866,-393,3.457,-18,3.452,229,5.229,422,,,,,,,3.432,780,3.432,12,3.432,-709,3.432,13177,22.275,12560,,
3.463,81,3.463,29,24.894,-285,3.463,-176,3.457,-1162,5.235,405,,,,,,,3.434,778,3.434,12,3.434,-709,3.434,13158,22.299,12673,,
3.469,-21,3.469,16,24.894,-285,3.469,-229,3.463,-1241,5.246,141,,,,,,,3.436,778,3.436,13,3.436,-709,3.436,13158,22.398,12621,,
3.474,82,3.474,-2,25.032,-197,3.474,-317,3.469,-1316,5.263,246,,,,,,,3.439,778,3.439,13,3.439,-711,3.439,13175,22.398,12621,,
3.48,-127,3.48,-18,25.032,-197,3.48,-282,3.474,-466,5.275,0,,,,,,,3.441,778,3.441,12,3.441,-709,3.441,13158,22.434,12686,,
3.486,-50,3.486,-32,25.288,428,3.486,-246,3.48,-75,5.309,194,,,,,,,3.444,779,3.444,14,3.444,-709,3.444,13168,22.439,12722,,
3.491,15,3.491,-35,25.362,315,3.491,-53,3.486,1162,5.326,18,,,,,,,3.446,777,3.446,16,3.446,-706,3.446,13125,22.435,12877,,
3.497,-90,3.497,-32,25.396,52,3.497,53,3.491,1474,5.355,194,,,,,,,3.448,777,3.448,20,3.448,-704,3.448,13109,22.442,12921,,
3.503,13,3.503,-29,25.475,-365,3.503,53,3.497,1316,5.366,0,,,,,,,3.451,778,3.451,22,3.451,-699,3.451,13077,22.526,12721,,
3.508,-78,3.508,-19,25.475,-365,3.508,176,3.503,1008,5.383,18,,,,,,,3.453,778,3.453,24,3.453,-698,3.453,13069,22.553,12864,,
3.514,-84,3.514,5,25.555,-317,3.514,422,3.508,1624,5.406,299,,,,,,,3.456,778,3.456,25,3.456,-696,3.456,13052,22.646,12747,,
3.521,50,3.521,36,25.607,-164,3.521,546,3.514,2169,5.423,141,,,,,,,3.45,719,3.45,-87,3.45,-729,3.45,12845,22.706,12877,,
3.526,154,3.526,66,25.749,-133,3.526,528,3.521,1549,5.429,211,,,,,,,3.453,719,3.453,-89,3.453,-728,3.453,12838,22.721,12723,,
3.532,131,3.532,89,25.749,-133,3.532,405,3.526,-75,5.44,141,,,,,,,3.455,718,3.455,-88,3.455,-730,3.455,12846,22.759,12901,,
3.538,93,3.538,97,25.874,245,3.538,141,3.532,-1782,5.469,229,,,,,,,3.458,719,3.458,-92,3.458,-729,3.458,12850,22.759,12901,,
3.543,78,3.543,99,25.926,250,3.543,35,3.538,-2169,5.48,563,,,,,,,3.46,719,3.46,-91,3.46,-729,3.46,12849,22.867,12770,,
3.549,106,3.549,102,25.966,97,3.549,53,3.543,-1549,5.486,528,,,,,,,3.462,720,3.462,-93,3.462,-729,3.462,12860,22.908,12917,,
3.555,102,3.555,104,26.005,-231,3.555,35,3.549,-466,5.497,211,,,,,,,3.465,720,3.465,-91,3.465,-731,3.465,12876,22.942,12784,,
3.56,202,3.56,96,26.079,-522,3.56,-141,3.555,-774,5.525,141,,,,,,,3.467,721,3.467,-93,3.467,-731,3.467,12887,22.997,12843,,
3.566,81,3.566,84,26.079,-522,3.566,-211,3.56,-1162,5.525,141,,,,,,,3.47,723,3.47,-92,3.47,-731,3.47,12903,23.019,13025,,
3.572,-46,3.572,78,26.108,-512,3.572,-106,3.566,-620,5.537,-282,,,,,,,3.472,723,3.472,-90,3.472,-729,3.472,12883,23.055,12776,,
3.577,-18,3.577,88,26.245,-93,3.577,176,3.572,1395,5.542,-299,,,,,,,3.475,724,3.475,-91,3.475,-730,3.475,12902,23.108,12926,,
3.583,129,3.583,118,26.341,-135,3.583,528,3.577,3252,5.554,299,,,,,,,3.477,723,3.477,-90,3.477,-729,3.477,12883,23.175,12849,,
3.589,195,3.589,153,26.341,-135,3.589,616,3.583,3177,5.559,405,,,,,,,3.479,721,3.479,-89,3.479,-727,3.479,12847,23.175,12849,,
3.594,276,3.594,170,26.415,12,3.594,299,3.589,541,5.6,422,,,,,,,3.482,721,3.482,-91,3.482,-727,3.482,12849,23.182,12961,,
3.6,264,3.6,166,26.449,172,3.6,-70,3.594,-2631,5.623,88,,,,,,,3.484,723,3.484,-92,3.484,-724,3.484,12841,23.178,12848,,
3.606,97,3.606,150,26.524,-5,3.606,-282,3.6,-3951,5.634,211,,,,,,,3.487,723,3.487,-88,3.487,-722,3.487,12819,23.193,12782,,
3.611,156,3.611,126,26.598,-3,3.611,-422,3.606,-3172,5.651,211,,,,,,,3.489,720,3.489,-86,3.489,-719,3.489,12764,23.33,12846,,
3.617,73,3.617,103,26.62,186,3.617,-405,3.611,-1474,5.657,123,,,,,,,3.491,719,3.491,-87,3.491,-719,3.491,12757,23.382,12739,,
3.623,11,3.623,92,26.66,845,3.623,-194,3.617,387,5.685,88,,,,,,,3.494,717,3.494,-85,3.494,-717,3.494,12719,23.426,12926,,
3.629,1,3.629,97,26.7,1298,3.629,88,3.623,2244,5.691,-35,,,,,,,3.496,718,3.496,-85,3.496,-718,3.496,12737,23.426,12926,,
3.634,107,3.634,121,26.7,1298,3.634,422,3.629,3639,5.708,158,,,,,,,3.499,717,3.499,-86,3.499,-719,3.499,12738,23.529,12829,,
3.64,232,3.64,151,26.717,1719,3.64,528,3.634,3177,5.725,651,,,,,,,3.501,716,3.501,-85,3.501,-718,3.501,12719,23.55,12933,,
3.646,182,3.646,177,26.734,2372,3.646,458,3.64,1628,5.731,651,,,,,,,3.503,714,3.503,-84,3.503,-718,3.503,12701,23.584,12796,,
3.651,251,3.651,190,26.746,2940,3.651,229,3.646,-849,5.742,106,,,,,,,3.506,714,3.506,-86,3.506,-717,3.506,12694,23.629,13076,,
3.657,170,3.657,195,26.78,4889,3.657,88,3.651,-1936,5.753,-246,,,,,,,3.508,712,3.508,-87,3.508,-714,3.508,12651,23.634,12975,,
3.663,224,3.663,200,26.792,5418,3.663,88,3.657,-1628,5.765,-141,,,,,,,3.511,713,3.511,-83,3.511,-714,3.511,12656,23.728,13131,,
3.668,135,3.668,205,26.803,5789,3.668,88,3.663,-620,5.799,-563,,,,,,,3.513,715,3.513,-82,3.513,-714,3.513,12672,23.788,12946,,
3.674,287,3.674,205,26.814,5974,3.674,0,3.668,-387,5.805,-422,,,,,,,3.515,714,3.515,-81,3.515,-712,3.515,12645,23.916,12944,,
3.68,182,3.68,210,26.831,5898,3.68,88,3.674,0,5.816,-370,,,,,,,3.518,713,3.518,-79,3.518,-711,3.518,12625,23.937,12800,,
3.685,95,3.685,219,26.894,4696,3.685,158,3.68,308,5.827,-792,,,,,,,3.52,714,3.52,-77,3.52,-712,3.52,12641,23.937,12800,,
3.691,335,3.691,232,26.894,4696,3.691,229,3.685,1008,5.827,-792,,,,,,,3.523,716,3.523,-78,3.523,-715,3.523,12686,23.969,12988,,
3.697,275,3.697,247,26.934,3686,3.697,264,3.691,774,5.833,-845,,,,,,,3.525,717,3.525,-74,3.525,-716,3.525,12700,24.006,12897,,
3.702,250,3.702,254,26.973,2843,3.702,123,3.697,-154,5.839,-739,,,,,,,3.527,715,3.527,-73,3.527,-717,3.527,12690,24.056,13044,,
3.708,225,3.708,259,27.048,1900,3.708,88,3.702,-620,5.844,-757,,,,,,,3.53,715,3.53,-71,3.53,-716,3.53,12679,24.104,13034,,
3.714,228,3.714,269,27.093,1588,3.714,176,3.708,-387,5.856,-493,,,,,,,3.532,713,3.532,-71,3.532,-716,3.532,12662,24.123,12897,,
3.719,300,3.719,285,27.116,1746,3.719,282,3.714,700,5.861,-458,,,,,,,3.535,715,3.535,-71,3.535,-714,3.535,12662,24.183,13187,,
3.725,368,3.725,294,27.156,2412,3.725,158,3.719,308,5.874,-704,,,,,,,3.537,713,3.537,-71,3.537,-716,3.537,12662,24.239,13078,,
3.731,273,3.731,299,27.19,3369,3.731,88,3.725,-387,5.879,-686,,,,,,,3.539,714,3.539,-71,3.539,-714,3.539,12653,24.27,13082,,
3.736,365,3.736,294,27.19,3369,3.736,-88,3.731,-1628,5.885,-352,,,,,,,3.542,719,3.542,-71,3.542,-714,3.542,12697,24.272,13176,,
3.742,193,3.742,295,27.235,4985,3.742,18,3.736,-616,5.891,-229,,,,,,,3.544,720,3.544,-71,3.544,-713,3.544,12697,24.272,13176,,
3.748,297,3.748,299,27.259,5664,3.748,70,3.742,-79,5.896,-352,,,,,,,3.547,718,3.547,-72,3.547,-717,3.547,12716,24.296,13048,,
3.754,292,3.754,308,27.276,6006,3.754,158,3.748,1082,5.908,-317,,,,,,,3.549,719,3.549,-72,3.549,-716,3.549,12716,24.292,12834,,
3.759,367,3.759,320,27.299,6132,3.759,211,3.754,849,5.925,-440,,,,,,,3.551,719,3.551,-73,3.551,-713,3.551,12690,24.304,12938,,
3.765,302,3.765,333,27.316,5913,3.765,229,3.759,700,5.93,-317,,,,,,,3.554,719,3.554,-73,3.554,-713,3.554,12690,24.349,12911,,
3.771,372,3.771,344,27.355,4951,3.771,194,3.765,158,5.936,-53,,,,,,,3.556,723,3.556,-74,3.556,-710,3.556,12700,24.361,12776,,
3.776,341,3.776,358,27.435,2589,3.776,246,3.771,154,5.953,158,,,,,,,3.559,725,3.559,-79,3.559,-710,3.559,12723,24.407,12767,,
3.782,319,3.782,373,27.435,2589,3.782,264,3.776,154,5.964,458,,,,,,,3.561,725,3.561,-77,3.561,-712,3.561,12738,24.421,12643,,
3.788,412,3.788,393,27.492,1347,3.788,352,3.782,695,5.97,475,,,,,,,3.563,727,3.563,-77,3.563,-713,3.563,12765,24.501,12692,,
3.793,421,3.793,412,27.538,1072,3.793,334,3.788,387,5.981,282,,,,,,,3.566,728,3.566,-76,3.566,-715,3.566,12790,24.525,12891,,
3.799,516,3.799,421,27.589,1095,3.799,158,3.793,-466,5.993,-35,,,,,,,3.568,727,3.568,-79,3.568,-716,3.568,12793,24.597,12726,,
3.805,442,3.805,419,27.68,1804,3.805,-35,3.799,-1703,6.004,-88,,,,,,,3.571,726,3.571,-78,3.571,-712,3.571,12748,24.619,12913,,
3.81,348,3.81,412,27.68,1804,3.81,-123,3.805,-2011,6.021,-88,,,,,,,3.573,725,3.573,-77,3.573,-710,3.573,12721,24.65,12692,,
3.817,406,3.817,405,27.725,1899,3.817,-123,3.81,-1236,6.061,282,,,,,,,3.575,726,3.575,-76,3.575,-711,3.575,12738,24.65,12692,,
3.823,398,3.823,402,27.902,1850,3.823,-53,3.817,-79,6.072,88,,,,,,,3.578,727,3.578,-74,3.578,-710,3.578,12736,24.674,12677,,
3.828,406,3.828,400,27.953,1518,3.828,-35,3.823,387,6.084,-229,,,,,,,3.58,725,3.58,-72,3.58,-708,3.58,12699,24.681,12731,,
3.834,404,3.834,396,27.953,1518,3.834,-70,3.828,233,6.084,-229,,,,,,,3.583,726,3.583,-78,3.583,-709,3.583,12722,24.676,12883,,
3.84,395,3.84,388,28.039,509,3.84,-141,3.834,-387,6.095,-334,,,,,,,3.585,727,3.585,-77,3.585,-707,3.585,12713,24.686,12900,,
3.845,398,3.845,379,28.108,132,3.845,-158,3.84,-541,6.101,-123,,,,,,,3.587,726,3.587,-74,3.587,-707,3.587,12701,24.809,12650,,
3.851,361,3.851,366,28.238,-64,3.851,-229,3.845,-700,6.106,211,,,,,,,3.59,724,3.59,-74,3.59,-709,3.59,12700,24.85,12877,,
3.857,367,3.857,348,28.238,-64,3.857,-317,3.851,-774,6.124,510,,,,,,,3.592,725,3.592,-76,3.592,-709,3.592,12711,24.924,12730,,
3.862,358,3.862,327,28.381,4,3.862,-370,3.857,-933,6.136,440,,,,,,,3.595,723,3.595,-77,3.595,-708,3.595,12686,25.027,12723,,
3.868,258,3.868,304,28.495,315,3.868,-405,3.862,-774,6.147,141,,,,,,,3.597,723,3.597,-75,3.597,-709,3.597,12692,25.047,12840,,
3.874,291,3.874,281,28.574,102,3.874,-405,3.868,-387,6.158,405,,,,,,,3.6,726,3.6,-75,3.6,-711,3.6,12737,25.047,12840,,
3.879,260,3.879,261,28.574,102,3.879,-352,3.874,79,6.192,-194,,,,,,,3.602,726,3.602,-73,3.602,-710,3.602,12726,25.208,12834,,
3.885,236,3.885,242,28.631,-392,3.885,-334,3.879,312,6.198,-158,,,,,,,3.604,724,3.604,-71,3.604,-709,3.604,12698,25.247,12587,,
3.891,250,3.891,219,28.74,-810,3.891,-405,3.885,0,6.204,88,,,,,,,3.607,726,3.607,-65,3.607,-709,3.607,12711,25.295,12804,,
3.896,144,3.896,200,28.74,-810,3.896,-334,3.891,79,6.238,334,,,,,,,3.609,724,3.609,-66,3.609,-708,3.609,12685,25.328,12631,,
3.902,216,3.902,180,28.808,-630,3.902,-352,3.896,-79,6.244,211,,,,,,,3.612,725,3.612,-65,3.612,-706,3.612,12676,25.355,12675,,
3.908,162,3.908,159,28.899,-647,3.908,-370,3.902,154,6.249,299,,,,,,,3.614,728,3.614,-66,3.614,-701,3.614,12660,25.362,12823,,
3.913,199,3.913,134,29.064,-174,3.913,-440,3.908,-466,6.266,35,,,,,,,3.616,729,3.616,-64,3.616,-701,3.616,12667,25.403,12681,,
3.919,14,3.919,109,29.11,-250,3.919,-440,3.913,-387,6.289,53,,,,,,,3.619,725,3.619,-64,3.619,-703,3.619,12649,25.403,12681,,
3.925,122,3.925,84,29.11,-250,3.925,-440,3.919,-308,6.306,282,,,,,,,3.621,725,3.621,-62,3.621,-704,3.621,12656,25.446,12910,,
3.93,14,3.93,68,29.172,-576,3.93,-282,3.925,695,6.312,158,,,,,,,3.624,724,3.624,-62,3.624,-704,3.624,12647,25.535,12861,,
3.936,61,3.936,52,29.212,-920,3.936,-282,3.93,695,6.329,211,,,,,,,3.626,725,3.626,-62,3.626,-705,3.626,12665,25.556,12997,,
3.942,77,3.942,35,29.275,-1091,3.942,-299,3.936,620,6.34,-18,,,,,,,3.628,725,3.628,-62,3.628,-711,3.628,12717,25.607,12934,,
3.948,22,3.948,14,29.275,-1091,3.948,-370,3.942,-387,6.346,-18,,,,,,,3.631,725,3.631,-60,3.631,-710,3.631,12707,25.629,13061,,
3.953,35,3.953,-13,29.304,-1069,3.953,-475,3.948,-849,6.357,299,,,,,,,3.633,727,3.633,-61,3.633,-707,3.633,12699,25.655,12910,,
3.959,-75,3.959,-37,29.338,-852,3.959,-422,3.953,-541,6.363,352,,,,,,,3.636,728,3.636,-63,3.636,-706,3.636,12701,25.734,12881,,
3.965,-138,3.965,-52,29.537,-515,3.965,-264,3.959,466,6.374,440,,,,,,,3.638,728,3.638,-64,3.638,-705,3.638,12693,25.794,13171,,
3.97,-106,3.97,-52,29.645,-141,3.97,0,3.965,2090,6.374,440,,,,,,,3.64,729,3.64,-62,3.64,-706,3.64,12709,25.794,13171,,
3.976,-44,3.976,-33,29.725,-134,3.976,334,3.97,3326,6.386,422,,,,,,,3.643,726,3.643,-61,3.643,-708,3.643,12699,25.835,13140,,
3.982,-100,3.982,0,29.753,46,3.982,581,3.976,3718,6.403,211,,,,,,,3.645,726,3.645,-61,3.645,-709,3.645,12708,25.831,12851,,
3.987,158,3.987,33,29.753,46,3.987,581,3.982,2556,6.408,88,,,,,,,3.648,724,3.648,-61,3.648,-711,3.648,12707,25.835,12846,,
3.993,84,3.993,62,29.787,681,3.993,510,3.987,774,6.426,-546,,,,,,,3.65,725,3.65,-61,3.65,-709,3.65,12699,25.884,13170,,
3.999,113,3.999,76,29.856,2236,3.999,246,3.993,-1474,6.432,-598,,,,,,,3.652,723,3.652,-59,3.652,-713,3.652,12714,25.917,13112,,
4.004,123,4.004,75,29.942,3354,4.004,-18,3.999,-2636,6.438,-317,,,,,,,3.655,724,3.655,-63,3.655,-713,3.655,12726,25.922,13206,,
4.01,60,4.01,65,30.027,3785,4.01,-176,4.004,-3018,6.443,141,,,,,,,3.657,726,3.657,-63,3.657,-711,3.657,12726,25.948,13051,,
4.016,56,4.016,51,30.027,3785,4.016,-246,4.01,-2165,6.455,334,,,,,,,3.66,725,3.66,-64,3.66,-710,3.66,12710,26.016,13230,,
4.021,-15,4.021,38,30.055,3726,4.021,-229,4.016,-928,6.477,370,,,,,,,3.662,729,3.662,-62,3.662,-712,3.662,12761,26.069,13061,,
4.027,14,4.027,33,30.089,3447,4.027,-88,4.021,387,6.494,53,,,,,,,3.664,729,3.664,-62,3.664,-710,3.664,12744,26.088,13185,,
4.033,42,4.033,36,30.306,573,4.033,53,4.027,1316,6.506,299,,,,,,,3.667,728,3.667,-63,3.667,-707,3.667,12710,26.124,13037,,
4.038,5,4.038,45,30.346,172,4.038,158,4.033,1703,6.511,334,,,,,,,3.669,728,3.669,-61,3.669,-708,3.669,12717,26.124,13037,,
4.044,35,4.044,60,30.346,172,4.044,264,4.038,1549,6.523,194,,,,,,,3.672,731,3.672,-60,3.672,-706,3.672,12725,26.206,13140,,
4.05,88,4.05,80,30.363,82,4.05,352,4.044,1316,6.54,176,,,,,,,3.674,730,3.674,-63,3.674,-707,3.674,12727,26.218,13067,,
4.055,142,4.055,100,30.409,163,4.055,352,4.05,854,6.546,88,,,,,,,3.676,735,3.676,-63,3.676,-707,3.676,12772,26.214,12905,,
4.061,168,4.061,110,30.471,499,4.061,176,4.055,-387,6.557,317,,,,,,,3.679,734,3.679,-62,3.679,-705,3.679,12745,26.262,12932,,
4.067,121,4.067,110,30.471,499,4.067,0,4.061,-1549,6.568,141,,,,,,,3.681,738,3.681,-63,3.681,-706,3.681,12791,26.318,12707,,
4.073,38,4.073,112,30.625,2349,4.073,35,4.067,-1395,6.58,176,,,,,,,3.684,738,3.684,-61,3.684,-705,3.684,12781,26.486,12711,,
4.078,78,4.078,120,30.682,2698,4.078,141,4.073,-154,6.591,352,,,,,,,3.686,736,3.686,-61,3.686,-699,3.686,12711,26.51,12846,,
4.084,184,4.084,134,30.75,3320,4.084,246,4.078,1082,6.614,-18,,,,,,,3.688,738,3.688,-59,3.688,-697,3.688,12710,26.522,13232,,
4.09,143,4.09,146,30.802,3327,4.09,211,4.084,774,6.625,246,,,,,,,3.691,737,3.691,-59,3.691,-691,3.691,12650,26.522,13232,,
4.095,144,4.095,160,30.802,3327,4.095,246,4.09,462,6.631,264,,,,,,,3.693,738,3.693,-55,3.693,-692,3.693,12665,26.541,13463,,
4.101,184,4.101,171,30.875,2962,4.101,194,4.095,-229,6.642,70,,,,,,,3.696,739,3.696,-56,3.696,-691,3.696,12666,26.54,13706,,
4.107,196,4.107,182,30.927,2149,4.107,194,4.101,-75,6.659,123,,,,,,,3.698,739,3.698,-54,3.698,-691,3.698,12665,26.545,14439,,
4.113,256,4.113,185,30.99,2100,4.113,53,4.107,-849,6.671,-123,,,,,,,3.7,737,3.7,-55,3.7,-690,3.7,12639,26.549,14740,,
4.119,60,4.119,191,31.086,1223,4.119,106,4.113,-387,6.682,-194,,,,,,,3.703,737,3.703,-55,3.703,-691,3.703,12647,26.557,14308,,
4.124,296,4.124,191,31.086,1223,4.124,0,4.119,-854,6.682,-194,,,,,,,3.705,740,3.705,-53,3.705,-691,3.705,12673,26.569,14066,,
4.13,152,4.13,195,31.183,1308,4.13,70,4.124,75,6.705,334,,,,,,,3.708,739,3.708,-54,3.708,-691,3.708,12665,26.578,14335,,
4.136,200,4.136,200,31.314,2137,4.136,88,4.13,-79,6.71,387,,,,,,,3.71,739,3.71,-53,3.71,-685,3.71,12613,26.581,14033,,
4.141,170,4.141,207,31.371,2834,4.141,123,4.136,541,6.722,35,,,,,,,3.712,739,3.712,-53,3.712,-686,3.712,12621,26.588,12521,,
4.147,289,4.147,209,31.371,2834,4.147,35,4.141,-154,6.774,-141,,,,,,,3.715,734,3.715,-53,3.715,-686,3.715,12576,26.593,11880,,
4.153,179,4.153,216,31.434,4388,4.153,123,4.147,154,6.779,-53,,,,,,,3.717,733,3.717,-53,3.717,-686,3.717,12567,26.598,11546,,
4.159,179,4.159,220,31.463,4826,4.159,70,4.153,-233,6.791,422,,,,,,,3.72,729,3.72,-53,3.72,-688,3.72,12547,26.607,11347,,
4.164,258,4.164,228,31.531,4875,4.164,141,4.159,466,6.796,528,,,,,,,3.722,729,3.722,-55,3.722,-688,3.722,12549,26.612,11438,,
4.17,277,4.17,235,31.531,4875,4.17,123,4.164,0,6.802,528,,,,,,,3.725,729,3.725,-55,3.725,-686,3.725,12532,26.617,11737,,
4.176,188,4.176,245,31.765,3903,4.176,176,4.17,466,6.813,158,,,,,,,3.727,730,3.727,-57,3.727,-686,3.727,12542,26.622,11789,,
4.181,216,4.181,257,31.833,3397,4.181,211,4.176,308,6.825,35,,,,,,,3.729,726,3.729,-55,3.729,-688,3.729,12522,26.631,12731,,
4.187,279,4.187,278,31.89,3137,4.187,370,4.181,1087,6.83,53,,,,,,,3.732,726,3.732,-57,3.732,-688,3.732,12523,26.638,13239,,
4.193,340,4.193,297,31.89,3137,4.193,334,4.187,695,6.836,211,,,,,,,3.734,726,3.734,-58,3.734,-687,3.734,12515,26.65,13642,,
4.198,303,4.198,313,31.987,2269,4.198,282,4.193,312,6.847,246,,,,,,,3.737,726,3.737,-60,3.737,-687,3.737,12517,26.665,14779,,
4.204,377,4.204,320,31.987,2269,4.204,123,4.198,-1087,6.853,176,,,,,,,3.739,724,3.739,-59,3.739,-685,3.739,12480,26.672,14367,,
4.21,320,4.21,321,32.18,40,4.21,18,4.204,-1390,6.865,-282,,,,,,,3.741,726,3.741,-60,3.741,-684,3.741,12491,26.677,14265,,
4.215,385,4.215,312,32.249,110,4.215,-158,4.21,-1936,6.87,-370,,,,,,,3.744,730,3.744,-58,3.744,-690,3.744,12577,26.691,14740,,
4.221,188,4.221,305,32.283,373,4.221,-123,4.215,-1082,6.876,-334,,,,,,,3.746,729,3.746,-61,3.746,-688,3.746,12553,26.699,14581,,
4.227,318,4.227,303,32.362,274,4.227,-35,4.221,-233,6.899,158,,,,,,,3.749,727,3.749,-62,3.749,-687,3.749,12527,26.708,13924,,
4.232,316,4.232,306,32.385,-50,4.232,53,4.227,928,6.921,0,,,,,,,3.751,726,3.751,-57,3.751,-688,3.751,12523,26.723,13328,,
4.238,268,4.238,316,32.385,-50,4.238,176,4.232,1316,6.933,18,,,,,,,3.753,727,3.753,-56,3.753,-689,3.753,12540,26.73,13258,,
4.244,287,4.244,333,32.419,-1008,4.244,299,4.238,1470,6.938,-70,,,,,,,3.756,727,3.756,-60,3.756,-689,3.756,12543,26.73,13258,,
4.249,347,4.249,356,32.448,-1551,4.249,405,4.244,1549,6.944,-53,,,,,,,3.758,729,3.758,-61,3.758,-689,3.758,12562,26.737,12713,,
4.255,562,4.255,372,32.522,-1632,4.255,282,4.249,466,6.95,88,,,,,,,3.761,729,3.761,-63,3.761,-689,3.761,12563,26.736,12546,,
4.261,308,4.261,377,32.562,-1904,4.261,88,4.255,-928,6.961,70,,,,,,,3.763,731,3.763,-63,3.763,-691,3.763,12598,26.744,12625,,
4.266,358,4.266,375,32.59,-1936,4.266,-35,4.261,-1936,6.972,-158,,,,,,,3.765,731,3.765,-65,3.765,-690,3.765,12591,26.751,12429,,
4.272,315,4.272,382,32.619,-1722,4.272,123,4.266,-700,6.972,-158,,,,,,,3.768,733,3.768,-65,3.768,-694,3.768,12644,26.756,11840,,
4.278,447,4.278,394,32.619,-1722,4.278,211,4.272,541,6.995,88,,,,,,,3.77,733,3.77,-63,3.77,-695,3.77,12651,26.763,12209,,
4.284,423,4.284,409,32.721,454,4.284,264,4.278,1316,7.007,-106,,,,,,,3.773,738,3.773,-64,3.773,-690,3.773,12654,26.768,12168,,
4.289,351,4.289,423,32.813,1740,4.289,246,4.284,541,7.03,-282,,,,,,,3.775,738,3.775,-62,3.775,-688,3.775,12636,26.77,12414,,
4.295,428,4.295,447,32.83,2537,4.295,422,4.289,928,7.036,-510,,,,,,,3.777,741,3.777,-61,3.777,-688,3.777,12662,26.772,12471,,
4.301,481,4.301,477,32.864,4688,4.301,528,4.295,1162,7.047,-722,,,,,,,3.78,742,3.78,-65,3.78,-689,3.78,12683,26.777,12439,,
4.306,519,4.306,506,32.898,6267,4.306,510,4.301,1162,7.064,-651,,,,,,,3.782,745,3.782,-65,3.782,-689,3.782,12711,26.78,12249,,
4.312,610,4.312,527,32.909,6575,4.312,370,4.306,-229,7.076,-898,,,,,,,3.785,745,3.785,-61,3.785,-687,3.785,12691,26.789,12901,,
4.318,545,4.318,538,32.921,6369,4.318,194,4.312,-1470,7.081,-933,,,,,,,3.787,745,3.787,-61,3.787,-693,3.787,12741,26.794,13598,,
4.323,534,4.323,540,32.926,6017,4.323,35,4.318,-2090,7.093,-774,,,,,,,3.789,745,3.789,-61,3.789,-691,3.789,12724,26.804,14521,,
4.329,524,4.329,542,32.943,4524,4.329,35,4.323,-1474,7.11,-1162,,,,,,,3.792,747,3.792,-62,3.792,-690,3.792,12735,26.808,14643,,
4.335,478,4.335,551,32.943,4524,4.335,158,4.329,-158,7.121,-774,,,,,,,3.794,746,3.794,-61,3.794,-689,3.794,12717,26.816,15417,,
4.34,655,4.34,560,32.949,4160,4.34,158,4.335,541,7.127,-704,,,,,,,3.797,744,3.797,-62,3.797,-690,3.797,12708,26.818,15371,,
4.346,586,4.346,564,32.96,3896,4.346,70,4.34,154,7.132,-792,,,,,,,3.799,745,3.799,-58,3.799,-690,3.799,12714,26.82,15558,,
4.352,486,4.352,569,33.001,4725,4.352,88,4.346,-308,7.149,-669,,,,,,,3.801,745,3.801,-61,3.801,-689,3.801,12707,26.828,15718,,
4.357,565,4.357,576,33.063,5077,4.357,123,4.352,-154,7.155,-722,,,,,,,3.804,745,3.804,-60,3.804,-691,3.804,12724,26.837,17699,,
4.363,591,4.363,590,33.08,4881,4.363,246,4.357,774,7.172,-475,,,,,,,3.806,747,3.806,-61,3.806,-691,3.806,12743,26.842,18199,,
4.369,705,4.369,593,33.103,3957,4.369,53,4.363,-154,7.178,-598,,,,,,,3.809,745,3.809,-60,3.809,-692,3.809,12732,26.844,18272,,
4.374,591,4.374,579,33.171,127,4.374,-246,4.369,-1624,7.189,-634,,,,,,,3.811,744,3.811,-60,3.811,-693,3.811,12732,26.849,18056,,
4.38,592,4.38,554,33.183,-337,4.38,-440,4.374,-3018,7.212,106,,,,,,,3.813,746,3.813,-60,3.813,-691,3.813,12733,26.852,17697,,
4.386,477,4.386,522,33.183,-337,4.386,-563,4.38,-2710,7.218,194,,,,,,,3.816,744,3.816,-59,3.816,-691,3.816,12714,26.854,17242,,
4.391,612,4.391,479,33.205,-593,4.391,-757,4.386,-2248,7.24,-123,,,,,,,3.818,745,3.818,-59,3.818,-690,3.818,12714,26.866,14190,,
4.397,312,4.397,439,33.229,-239,4.397,-704,4.391,-1162,7.257,53,,,,,,,3.821,747,3.821,-58,3.821,-690,3.821,12732,26.871,13169,,
4.403,340,4.403,400,33.246,287,4.403,-686,4.397,-541,7.274,-88,,,,,,,3.823,745,3.823,-59,3.823,-685,3.823,12672,26.876,12353,,
4.409,426,4.409,372,33.302,3279,4.409,-493,4.403,1162,7.274,-88,,,,,,,3.825,745,3.825,-57,3.825,-686,3.825,12679,26.878,12135,,
4.415,383,4.415,344,33.336,5778,4.415,-493,4.409,928,7.297,53,,,,,,,3.828,744,3.828,-57,3.828,-688,3.828,12687,26.888,12160,,
4.421,290,4.421,313,33.348,6130,4.421,-546,4.415,616,7.315,352,,,,,,,3.83,746,3.83,-57,3.83,-687,3.83,12697,26.888,12160,,
4.426,295,4.426,272,33.359,5950,4.426,-722,4.421,-1008,7.343,-106,,,,,,,3.833,744,3.833,-58,3.833,-690,3.833,12705,26.9,13057,,
4.432,190,4.432,240,33.376,4751,4.432,-563,4.426,-308,7.383,246,,,,,,,3.835,746,3.835,-56,3.835,-688,3.835,12705,26.905,13506,,
4.438,250,4.438,205,33.388,3322,4.438,-616,4.432,-308,7.389,211,,,,,,,3.837,742,3.837,-56,3.837,-688,3.837,12668,26.903,13552,,
4.443,144,4.443,167,33.405,817,4.443,-669,4.438,233,7.4,-141,,,,,,,3.84,743,3.84,-56,3.84,-687,3.84,12669,26.908,13476,,
4.449,204,4.449,122,33.416,-292,4.449,-792,4.443,-1008,7.412,-176,,,,,,,3.842,745,3.842,-54,3.842,-688,3.842,12694,26.918,13982,,
4.455,24,4.455,76,33.422,-550,4.455,-810,4.449,-854,7.423,-53,,,,,,,3.845,743,3.845,-52,3.845,-687,3.845,12666,26.925,14072,,
4.46,49,4.46,24,33.422,-550,4.46,-915,4.455,-1082,7.434,246,,,,,,,3.847,741,3.847,-51,3.847,-689,3.847,12664,26.944,13793,,
4.466,-26,4.466,-26,33.427,-607,4.466,-880,4.46,-387,7.44,246,,,,,,,3.85,742,3.85,-51,3.85,-685,3.85,12639,26.954,13096,,
4.472,-100,4.472,-74,33.439,-251,4.472,-845,4.466,-154,7.451,70,,,,,,,3.852,744,3.852,-51,3.852,-686,3.852,12666,26.961,12399,,
4.478,-144,4.478,-118,33.479,2692,4.478,-774,4.472,620,7.468,18,,,,,,,3.854,743,3.854,-52,3.854,-686,3.854,12657,26.968,12186,,
4.483,-133,4.483,-163,33.491,3237,4.483,-792,4.478,387,7.485,282,,,,,,,3.857,743,3.857,-52,3.857,-685,3.857,12649,26.98,11571,,
4.489,-210,4.489,-199,33.502,3366,4.489,-634,4.483,928,7.497,194,,,,,,,3.859,743,3.859,-50,3.859,-685,3.859,12648,26.99,11760,,
4.495,-256,4.495,-237,33.525,3048,4.495,-669,4.489,462,7.502,246,,,,,,,3.862,743,3.862,-52,3.862,-687,3.862,12666,26.997,11731,,
4.5,-248,4.5,-272,33.536,3281,4.5,-616,4.495,774,7.508,458,,,,,,,3.864,741,3.864,-49,3.864,-688,3.864,12654,27.016,12160,,
4.506,-357,4.506,-299,33.547,4009,4.506,-475,4.5,700,7.514,528,,,,,,,3.866,744,3.866,-52,3.866,-686,3.866,12667,27.031,11731,,
4.512,-411,4.512,-317,33.576,6532,4.512,-317,4.506,1549,7.537,-106,,,,,,,3.861,717,3.861,-88,3.861,-733,3.861,12864,27.047,12230,,
4.517,-233,4.517,-331,33.587,7126,4.517,-246,4.512,1628,7.548,123,,,,,,,3.863,719,3.863,-82,3.863,-731,3.863,12858,27.076,12236,,
4.523,-316,4.523,-347,33.593,7208,4.523,-282,4.517,849,7.554,334,,,,,,,3.866,719,3.866,-82,3.866,-733,3.866,12875,27.086,12078,,
4.529,-314,4.529,-376,33.598,7116,4.529,-510,4.523,-849,7.565,422,,,,,,,3.868,718,3.868,-81,3.868,-733,3.868,12866,27.093,12265,,
4.534,-482,4.534,-408,33.61,6425,4.534,-563,4.529,-1395,7.565,422,,,,,,,3.871,716,3.871,-79,3.871,-730,3.871,12820,27.095,12485,,
4.54,-466,4.54,-436,33.655,1454,4.54,-493,4.534,-928,7.576,123,,,,,,,3.873,718,3.873,-77,3.873,-728,3.873,12817,27.095,12485,,
4.546,-475,4.546,-454,33.655,1454,4.546,-317,4.54,849,7.605,211,,,,,,,3.875,716,3.875,-77,3.875,-732,3.875,12836,27.11,12272,,
4.551,-431,4.551,-469,33.667,313,4.551,-264,4.546,1316,7.622,-88,,,,,,,3.878,715,3.878,-76,3.878,-732,3.878,12826,27.108,12080,,
4.557,-509,4.557,-481,33.678,-527,4.557,-211,4.551,1241,7.645,53,,,,,,,3.88,715,3.88,-74,3.88,-733,3.88,12833,27.11,12344,,
4.563,-505,4.563,-490,33.695,-882,4.563,-158,4.557,700,7.657,282,,,,,,,3.883,716,3.883,-74,3.883,-732,3.883,12833,27.122,12184,,
4.568,-511,4.568,-490,33.713,28,4.568,0,4.563,1162,7.668,211,,,,,,,3.885,716,3.885,-73,3.885,-734,3.885,12850,27.137,12771,,
4.574,-519,4.574,-484,33.741,3191,4.574,106,4.568,1395,7.674,0,,,,,,,3.887,716,3.887,-75,3.887,-733,3.887,12843,27.139,12575,,
4.58,-441,4.58,-473,33.758,4310,4.58,194,4.574,1549,7.679,-53,,,,,,,3.89,718,3.89,-76,3.89,-734,3.89,12870,27.142,12738,,
4.585,-492,4.585,-459,33.832,4808,4.585,246,4.58,1082,7.685,0,,,,,,,3.892,719,3.892,-78,3.892,-735,3.892,12889,27.149,12502,,
4.591,-424,4.591,-447,33.849,4277,4.591,211,4.585,462,7.691,229,,,,,,,3.895,718,3.895,-77,3.895,-737,3.895,12898,27.163,12515,,
4.597,-411,4.597,-436,33.872,2507,4.597,194,4.591,0,7.696,317,,,,,,,3.897,720,3.897,-79,3.897,-735,3.897,12899,27.173,12277,,
4.603,-473,4.603,-422,33.872,2507,4.603,246,4.597,0,7.702,299,,,,,,,3.899,716,3.899,-79,3.899,-737,3.899,12882,27.192,12291,,
4.608,-379,4.608,-413,33.934,-1357,4.608,158,4.603,-233,7.719,-141,,,,,,,3.902,718,3.902,-79,3.902,-737,3.902,12899,27.204,11864,,
4.614,-352,4.614,-409,33.952,-1811,4.614,70,4.608,-546,7.736,123,,,,,,,3.904,716,3.904,-78,3.904,-737,3.904,12881,27.216,11992,,
4.62,-471,4.62,-400,33.969,-1331,4.62,158,4.614,-387,7.742,88,,,,,,,3.907,715,3.907,-75,3.907,-736,3.907,12861,27.283,10874,,
4.625,-402,4.625,-393,34.009,1535,4.625,123,4.62,-154,7.747,18,,,,,,,3.909,717,3.909,-75,3.909,-734,3.909,12860,27.327,11451,,
4.631,-352,4.631,-383,34.037,2466,4.631,176,4.625,466,7.765,-422,,,,,,,3.911,718,3.911,-77,3.911,-735,3.911,12880,27.327,11451,,
4.637,-357,4.637,-370,34.071,4287,4.637,229,4.631,312,7.776,-581,,,,,,,3.914,717,3.914,-77,3.914,-739,3.914,12907,27.351,11212,,
4.642,-470,4.642,-353,34.083,4447,4.642,299,4.637,774,7.787,-968,,,,,,,3.916,717,3.916,-75,3.916,-738,3.916,12896,27.371,11663,,
4.648,-274,4.648,-332,34.094,4010,4.648,370,4.642,854,7.793,-933,,,,,,,3.919,715,3.919,-75,3.919,-734,3.919,12843,27.409,11923,,
4.654,-305,4.654,-306,34.122,1660,4.654,458,4.648,1008,7.799,-616,,,,,,,3.921,717,3.921,-74,3.921,-735,3.921,12868,27.416,12275,,
4.659,-243,4.659,-287,34.122,1660,4.659,334,4.654,154,7.81,-370,,,,,,,3.923,722,3.923,-75,3.923,-732,3.923,12886,27.479,13306,,
4.665,-275,4.665,-274,34.168,-1246,4.665,229,4.659,-620,7.81,-370,,,,,,,3.926,724,3.926,-72,3.926,-733,3.926,12910,27.512,13446,,
4.671,-273,4.671,-264,34.185,-1480,4.671,176,4.665,-1241,7.827,-475,,,,,,,3.928,725,3.928,-72,3.928,-735,3.928,12936,27.517,13625,,
4.676,-256,4.676,-253,34.203,-481,4.676,194,4.671,-616,7.844,-123,,,,,,,3.931,725,3.931,-70,3.931,-735,3.931,12935,27.534,13584,,
4.682,-265,4.682,-243,34.225,2007,4.682,176,4.676,-233,7.85,-158,,,,,,,3.933,723,3.933,-71,3.933,-734,3.933,12909,27.551,13898,,
4.688,-188,4.688,-237,34.237,2920,4.688,106,4.682,-308,7.862,-422,,,,,,,3.935,722,3.935,-70,3.935,-735,3.935,12908,27.551,13898,,
4.693,-209,4.693,-238,34.248,3374,4.693,-18,4.688,-933,7.868,-387,,,,,,,3.938,722,3.938,-69,3.938,-741,3.938,12961,27.57,13767,,
4.699,-246,4.699,-242,34.259,3411,4.699,-70,4.693,-1082,7.873,-510,,,,,,,3.94,724,3.94,-69,3.94,-741,3.94,12978,27.58,14310,,
4.706,-267,4.706,-250,34.316,1933,4.706,-141,4.699,-1087,7.885,-458,,,,,,,3.943,722,3.943,-68,3.943,-737,3.943,12925,27.592,14508,,
4.711,-226,4.711,-255,34.356,-617,4.711,-88,4.706,-308,7.89,-422,,,,,,,3.945,721,3.945,-71,3.945,-737,3.945,12918,27.616,13912,,
4.717,-299,4.717,-255,34.367,-1109,4.717,0,4.711,308,7.902,-18,,,,,,,3.948,721,3.948,-70,3.948,-737,3.948,12917,27.633,13859,,
4.723,-324,4.723,-249,34.379,-1178,4.723,106,4.717,1087,7.913,158,,,,,,,3.95,722,3.95,-68,3.95,-735,3.95,12907,27.65,13546,,
4.728,-230,4.728,-231,34.379,-1178,4.728,317,4.723,1782,7.936,-106,,,,,,,3.952,723,3.952,-68,3.952,-733,3.952,12898,27.681,13479,,
4.734,-244,4.734,-207,34.39,-633,4.734,422,4.728,1857,7.947,282,,,,,,,3.955,723,3.955,-70,3.955,-731,3.955,12882,27.708,13755,,
4.74,-60,4.74,-190,34.418,2189,4.74,299,4.734,849,7.97,370,,,,,,,3.957,728,3.957,-69,3.957,-729,3.957,12907,27.725,13448,,
4.745,-146,4.745,-186,34.43,2977,4.745,70,4.74,-1087,7.993,106,,,,,,,3.96,727,3.96,-70,3.96,-729,3.96,12899,27.725,13448,,
4.751,-192,4.751,-196,34.448,3531,4.751,-176,4.745,-2631,8.01,334,,,,,,,3.962,729,3.962,-69,3.962,-731,3.962,12934,27.785,13063,,
4.757,-177,4.757,-216,34.476,3876,4.757,-352,4.751,-2864,8.015,264,,,,,,,3.964,730,3.964,-71,3.964,-731,3.964,12944,27.817,12618,,
4.762,-322,4.762,-232,34.493,3689,4.762,-282,4.757,-1549,8.027,-141,,,,,,,3.967,730,3.967,-71,3.967,-731,3.967,12944,27.848,12597,,
4.768,-290,4.768,-237,34.493,3689,4.768,-88,4.762,387,8.032,-70,,,,,,,3.969,732,3.969,-71,3.969,-730,3.969,12953,27.86,13027,,
4.774,-217,4.774,-233,34.612,178,4.774,70,4.768,1857,8.038,229,,,,,,,3.972,732,3.972,-72,3.972,-731,3.972,12963,27.868,13710,,
4.779,-227,4.779,-217,34.641,-388,4.779,282,4.774,2482,8.044,405,,,,,,,3.974,733,3.974,-68,3.974,-730,3.974,12959,27.882,15750,,
4.785,-225,4.785,-196,34.67,-166,4.785,370,4.779,2015,8.049,352,,,,,,,3.976,733,3.976,-69,3.976,-731,3.976,12969,27.889,16166,,
4.791,-217,4.791,-167,34.704,1444,4.791,510,4.785,1936,8.061,-88,,,,,,,3.979,732,3.979,-72,3.979,-730,3.979,12954,27.896,15643,,
4.796,-125,4.796,-131,34.721,1889,4.796,634,4.791,1549,8.083,123,,,,,,,3.981,730,3.981,-71,3.981,-728,3.981,12918,27.911,13281,,
4.802,-66,4.802,-96,34.772,1281,4.802,616,4.796,1082,8.095,370,,,,,,,3.984,730,3.984,-73,3.984,-728,3.984,12919,27.918,12308,,
4.808,3,4.808,-74,34.772,1281,4.808,387,4.802,-541,8.101,352,,,,,,,3.986,728,3.986,-74,3.986,-729,3.986,12911,27.93,11406,,
4.814,-26,4.814,-68,34.886,695,4.814,106,4.808,-2323,8.118,-141,,,,,,,3.988,728,3.988,-72,3.988,-728,3.988,12901,27.937,11300,,
4.819,-8,4.819,-80,34.955,1244,4.819,-211,4.814,-3639,8.118,-141,,,,,,,3.991,726,3.991,-70,3.991,-727,3.991,12873,27.949,11559,,
4.825,-132,4.825,-102,35.028,2661,4.825,-387,4.819,-3406,8.129,-334,,,,,,,3.993,725,3.993,-67,3.993,-725,3.993,12844,27.966,12937,,
4.831,-174,4.831,-123,35.108,2733,4.831,-370,4.825,-2094,8.135,-334,,,,,,,3.996,725,3.996,-66,3.996,-731,3.996,12896,27.973,13349,,
4.836,-157,4.836,-137,35.108,2733,4.836,-246,4.831,-154,8.14,-176,,,,,,,3.998,724,3.998,-65,3.998,-730,3.998,12877,27.983,13580,,
4.842,-185,4.842,-139,35.222,1150,4.842,-35,4.836,1549,8.146,106,,,,,,,4,724,4,-65,4,-730,4,12877,27.983,13580,,
4.848,-140,4.848,-129,35.29,762,4.848,176,4.842,2402,8.152,211,,,,,,,4.003,724,4.003,-67,4.003,-730,4.003,12879,28.008,12796,,
4.853,-137,4.853,-112,35.33,279,4.853,299,4.848,2398,8.164,176,,,,,,,4.005,724,4.005,-66,4.005,-732,4.005,12896,28.02,12637,,
4.859,-57,4.859,-88,35.381,186,4.859,422,4.853,2011,8.181,440,,,,,,,4.008,724,4.008,-64,4.008,-733,4.008,12903,28.092,13287,,
4.865,-106,4.865,-58,35.381,186,4.865,528,4.859,1549,8.192,405,,,,,,,4.01,726,4.01,-65,4.01,-736,4.01,12948,28.118,12807,,
4.87,-44,4.87,-28,35.484,1930,4.87,528,4.865,1008,8.215,-18,,,,,,,4.012,726,4.012,-61,4.012,-737,4.012,12954,28.174,13209,,
4.876,41,4.876,4,35.558,2003,4.876,563,4.87,620,8.221,-18,,,,,,,4.015,727,4.015,-62,4.015,-734,4.015,12937,28.186,13049,,
4.882,54,4.882,33,35.558,2003,4.882,510,4.876,-79,8.226,141,,,,,,,4.017,729,4.017,-59,4.017,-732,4.017,12935,28.186,13049,,
4.887,100,4.887,52,35.609,1634,4.887,334,4.882,-854,8.243,264,,,,,,,4.02,731,4.02,-57,4.02,-729,4.02,12924,28.188,13170,,
4.893,106,4.893,61,35.724,1351,4.893,158,4.887,-1782,8.255,493,,,,,,,4.022,732,4.022,-55,4.022,-727,4.022,12914,28.228,12916,,
4.899,-27,4.899,75,35.792,524,4.899,246,4.893,-1162,8.277,176,,,,,,,4.024,733,4.024,-56,4.024,-728,4.024,12933,28.336,12794,,
4.904,40,4.904,94,35.832,448,4.904,334,4.899,0,8.289,123,,,,,,,4.027,734,4.027,-54,4.027,-728,4.027,12940,28.42,12993,,
4.91,135,4.91,121,35.877,-174,4.91,475,4.904,1395,8.306,264,,,,,,,4.029,734,4.029,-54,4.029,-728,4.029,12940,28.468,12802,,
4.916,195,4.916,155,35.877,-174,4.916,598,4.91,1549,8.312,106,,,,,,,4.032,735,4.032,-54,4.032,-729,4.032,12958,28.468,12802,,
4.921,168,4.921,180,35.9,-111,4.921,440,4.916,466,8.323,158,,,,,,,4.034,738,4.034,-54,4.034,-725,4.034,12949,28.601,13052,,
4.927,302,4.927,194,36.008,1391,4.927,246,4.921,-1008,8.34,440,,,,,,,4.036,740,4.036,-54,4.036,-726,4.036,12976,28.677,12634,,
4.933,160,4.933,207,36.048,1446,4.933,229,4.927,-1624,8.351,246,,,,,,,4.039,737,4.039,-52,4.039,-724,4.039,12930,28.726,12713,,
4.939,162,4.939,213,36.077,855,4.939,106,4.933,-1470,8.363,-141,,,,,,,4.041,738,4.041,-52,4.041,-724,4.041,12939,28.754,12467,,
4.944,293,4.944,217,36.122,-1585,4.944,70,4.939,-774,8.368,-246,,,,,,,4.044,736,4.044,-53,4.044,-723,4.044,12913,28.754,12467,,
4.95,201,4.95,224,36.139,-2264,4.95,123,4.944,-466,8.397,106,,,,,,,4.046,735,4.046,-52,4.046,-723,4.046,12904,28.92,12471,,
4.956,233,4.956,225,36.156,-2612,4.956,18,4.95,-387,8.408,475,,,,,,,4.048,735,4.048,-50,4.048,-721,4.048,12885,28.923,12480,,
4.961,247,4.961,225,36.156,-2612,4.961,0,4.956,-308,8.408,475,,,,,,,4.051,735,4.051,-50,4.051,-720,4.051,12876,28.919,12867,,
4.967,174,4.967,231,36.19,-2281,4.967,106,4.961,-75,8.431,370,,,,,,,4.053,735,4.053,-51,4.053,-721,4.053,12886,28.924,12930,,
4.973,168,4.973,245,36.248,-501,4.973,246,4.967,1003,8.442,211,,,,,,,4.056,736,4.056,-53,4.056,-721,4.056,12896,28.979,13022,,
4.979,324,4.979,265,36.316,866,4.979,352,4.973,1549,8.454,-106,,,,,,,4.058,732,4.058,-53,4.058,-721,4.058,12860,29.03,12815,,
4.985,303,4.985,286,36.316,866,4.985,370,4.979,1162,8.483,-176,,,,,,,4.06,734,4.06,-55,4.06,-722,4.06,12888,29.09,13103,,
4.99,384,4.99,296,36.412,892,4.99,176,4.985,-308,8.488,-246,,,,,,,4.063,731,4.063,-54,4.063,-726,4.063,12896,29.09,13103,,
4.996,226,4.996,301,36.464,219,4.996,88,4.99,-1162,8.505,-686,,,,,,,4.065,732,4.065,-52,4.065,-726,4.065,12904,29.213,13090,,
5.002,264,5.002,309,36.504,3,5.002,141,4.996,-1008,8.534,-774,,,,,,,4.068,730,4.068,-51,4.068,-724,4.068,12868,29.232,13016,,
5.008,342,5.008,324,36.527,166,5.008,264,5.002,387,8.557,-616,,,,,,,4.07,732,4.07,-55,4.07,-725,4.07,12897,29.227,12862,,
5.013,374,5.013,338,36.578,1401,5.013,246,5.008,695,8.568,-1021,,,,,,,4.073,733,4.073,-56,4.073,-722,4.073,12880,29.23,12849,,
5.019,377,5.019,344,36.578,1401,5.019,106,5.013,-154,8.579,-968,,,,,,,4.075,733,4.075,-58,4.075,-722,4.075,12881,29.278,12937,,
5.025,317,5.025,346,36.715,1480,5.025,35,5.019,-1008,8.591,-651,,,,,,,4.077,733,4.077,-58,4.077,-722,4.077,12881,29.331,12655,,
5.03,329,5.03,350,36.772,1253,5.03,70,5.025,-774,8.602,-651,,,,,,,4.08,733,4.08,-54,4.08,-722,4.08,12879,29.384,12977,,
5.036,342,5.036,357,36.812,594,5.036,123,5.03,75,8.625,-176,,,,,,,4.082,733,4.082,-55,4.082,-719,4.082,12853,29.473,13012,,
5.042,448,5.042,357,36.874,-1093,5.042,0,5.036,-154,8.636,-246,,,,,,,4.085,732,4.085,-54,4.085,-719,4.085,12843,29.569,12786,,
5.047,342,5.047,350,36.874,-1093,5.047,-123,5.042,-849,8.648,-158,,,,,,,4.087,734,4.087,-55,4.087,-722,4.087,12888,29.569,12786,,
5.053,335,5.053,339,37.034,-3740,5.053,-194,5.047,-1395,8.659,35,,,,,,,4.089,736,4.089,-48,4.089,-722,4.089,12902,29.62,12925,,
5.059,288,5.059,325,37.034,-3740,5.059,-246,5.053,-1082,8.67,70,,,,,,,4.092,736,4.092,-46,4.092,-723,4.092,12909,29.656,13273,,
5.064,385,5.064,310,37.25,-2444,5.064,-264,5.059,-620,8.687,352,,,,,,,4.094,738,4.094,-47,4.094,-722,4.094,12919,29.673,13731,,
5.07,264,5.07,294,37.33,-2783,5.07,-282,5.064,-387,8.71,211,,,,,,,4.097,742,4.097,-47,4.097,-720,4.097,12937,29.697,13868,,
5.076,243,5.076,271,37.33,-2783,5.076,-405,5.07,-700,8.71,211,,,,,,,4.099,743,4.099,-45,4.099,-720,4.099,12945,29.718,14511,,
5.081,326,5.081,249,37.415,-4246,5.081,-387,5.076,-541,8.727,-123,,,,,,,4.101,741,4.101,-43,4.101,-723,4.101,12952,29.737,14449,,
5.087,161,5.087,228,37.484,-5069,5.087,-370,5.081,-387,8.744,-158,,,,,,,4.104,741,4.104,-43,4.104,-724,4.104,12961,29.754,13475,,
5.093,267,5.093,199,37.581,-5454,5.093,-510,5.087,-462,8.756,-18,,,,,,,4.106,744,4.106,-43,4.106,-726,4.106,13005,29.761,13252,,
5.098,191,5.098,168,37.609,-5347,5.098,-546,5.093,-700,8.779,-194,,,,,,,4.109,746,4.109,-40,4.109,-726,4.109,13022,29.786,13810,,
5.104,53,5.104,138,37.643,-5914,5.104,-528,5.098,-695,8.785,-35,,,,,,,4.111,748,4.111,-41,4.111,-719,4.111,12979,29.814,13440,,
5.11,94,5.11,112,37.643,-5914,5.11,-458,5.104,229,8.79,317,,,,,,,4.113,750,4.113,-38,4.113,-717,4.113,12979,29.814,13440,,
5.115,117,5.115,90,37.688,-4418,5.115,-387,5.11,700,8.796,458,,,,,,,4.116,753,4.116,-38,4.116,-715,4.116,12988,29.846,14384,,
5.121,85,5.121,68,37.752,-4074,5.121,-387,5.115,620,8.802,458,,,,,,,4.118,754,4.118,-36,4.118,-714,4.118,12988,29.875,13525,,
5.127,133,5.127,31,37.791,-3394,5.127,-651,5.121,-849,8.807,370,,,,,,,4.121,754,4.121,-36,4.121,-718,4.121,13022,29.902,12992,,
5.133,-67,5.133,-12,37.791,-3394,5.133,-757,5.127,-1628,8.813,158,,,,,,,4.123,756,4.123,-31,4.123,-716,4.123,13021,29.952,13167,,
5.138,-52,5.138,-55,37.791,-3394,5.138,-757,5.133,-1628,8.836,-264,,,,,,,4.125,758,4.125,-29,4.125,-717,4.125,13047,29.991,12980,,
5.144,-149,5.144,-97,37.791,-3394,5.144,-739,5.138,-387,8.853,-211,,,,,,,4.128,758,4.128,-31,4.128,-717,4.128,13048,30.007,13150,,
5.15,-110,5.15,-133,38.179,-3219,5.15,-634,5.144,541,8.87,123,,,,,,,4.13,758,4.13,-30,4.13,-717,4.13,13048,30.034,12958,,
5.155,-180,5.155,-166,38.709,-2518,5.155,-581,5.15,774,8.881,158,,,,,,,4.133,758,4.133,-32,4.133,-718,4.133,13057,30.034,12958,,
5.161,-192,5.161,-202,38.709,-2518,5.161,-634,5.155,462,8.893,440,,,,,,,4.135,759,4.135,-32,4.135,-718,4.135,13066,30.073,13134,,
5.167,-192,5.167,-235,38.782,-2763,5.167,-581,5.161,233,8.898,352,,,,,,,4.137,758,4.137,-31,4.137,-716,4.137,13039,30.193,13115,,
5.172,-334,5.172,-271,38.891,-3552,5.172,-634,5.167,-233,8.91,-123,,,,,,,4.14,760,4.14,-30,4.14,-718,4.14,13074,30.248,14393,,
5.178,-271,5.178,-306,38.891,-3552,5.178,-616,5.172,79,8.915,-88,,,,,,,4.142,760,4.142,-32,4.142,-717,4.142,13067,30.248,14393,,
5.184,-357,5.184,-338,39.159,-3476,5.184,-563,5.178,79,8.927,158,,,,,,,4.145,760,4.145,-32,4.145,-715,4.145,13049,30.268,14639,,
5.189,-402,5.189,-368,39.159,-3476,5.189,-528,5.184,466,8.944,158,,,,,,,4.147,760,4.147,-30,4.147,-716,4.147,13057,30.279,15001,,
5.195,-333,5.195,-397,39.495,-2391,5.195,-510,5.189,466,8.961,-264,,,,,,,4.149,761,4.149,-30,4.149,-716,4.149,13066,30.308,15151,,
5.201,-466,5.201,-422,39.557,-2355,5.201,-440,5.195,541,8.978,387,,,,,,,4.152,761,4.152,-30,4.152,-715,4.152,13058,30.373,14404,,
5.206,-481,5.206,-440,39.557,-2355,5.206,-317,5.201,928,8.989,510,,,,,,,4.154,761,4.154,-30,4.154,-717,4.154,13075,30.399,14452,,
5.212,-468,5.212,-448,39.728,-3956,5.212,-141,5.206,1624,9.001,370,,,,,,,4.157,762,4.157,-26,4.157,-716,4.157,13074,30.438,13991,,
5.218,-511,5.218,-441,39.728,-3956,5.218,123,5.212,2477,9.001,370,,,,,,,4.159,766,4.159,-27,4.159,-711,4.159,13068,30.51,14419,,
5.223,-426,5.223,-424,40.042,-3511,5.223,299,5.218,2710,9.012,-53,,,,,,,4.161,768,4.161,-22,4.161,-711,4.161,13085,30.51,14419,,
5.229,-404,5.229,-400,40.042,-3511,5.229,422,5.223,2477,9.023,-106,,,,,,,4.164,770,4.164,-23,4.164,-712,4.164,13112,30.593,13999,,
5.235,-323,5.235,-377,40.172,-2802,5.235,405,5.229,1241,9.04,18,,,,,,,4.166,769,4.166,-22,4.166,-713,4.166,13111,30.607,13660,,
5.24,-316,5.24,-360,40.172,-2802,5.24,299,5.235,0,9.053,211,,,,,,,4.169,768,4.169,-22,4.169,-709,4.169,13068,30.621,14094,,
5.246,-375,5.246,-352,40.537,-1540,5.246,141,5.24,-1236,9.058,53,,,,,,,4.171,768,4.171,-22,4.171,-708,4.171,13060,30.662,14167,,
5.252,-397,5.252,-340,40.571,-1706,5.252,211,5.246,-854,9.07,-493,,,,,,,4.173,770,4.173,-23,4.173,-709,4.173,13087,30.672,13954,,
5.258,-319,5.258,-325,40.571,-1706,5.258,264,5.252,-154,9.075,-581,,,,,,,4.176,770,4.176,-25,4.176,-707,4.176,13071,30.679,13349,,
5.263,-278,5.263,-311,40.679,-3052,5.263,246,5.258,462,9.087,-352,,,,,,,4.178,772,4.178,-24,4.178,-707,4.178,13089,30.727,13276,,
5.269,-229,5.269,-305,40.731,-3360,5.269,106,5.263,-462,9.098,-387,,,,,,,4.181,771,4.181,-21,4.181,-705,4.181,13062,30.73,13013,,
5.275,-359,5.275,-305,40.731,-3360,5.275,0,5.269,-1162,9.115,-211,,,,,,,4.183,778,4.183,-19,4.183,-702,4.183,13101,30.737,13139,,
5.281,-322,5.281,-304,40.947,-3003,5.281,18,5.275,-1003,9.121,-246,,,,,,,4.185,779,4.185,-12,4.185,-701,4.185,13100,30.746,12606,,
5.287,-298,5.287,-299,41.147,-2191,5.287,88,5.281,-79,9.132,-493,,,,,,,4.188,786,4.188,-12,4.188,-695,4.188,13116,30.754,12797,,
5.292,-287,5.292,-293,41.186,-2318,5.292,106,5.287,466,9.143,-475,,,,,,,4.19,788,4.19,-15,4.19,-693,4.19,13119,30.766,12306,,
5.298,-287,5.298,-284,41.186,-2318,5.298,158,5.292,616,9.161,-158,,,,,,,4.193,788,4.193,-14,4.193,-697,4.193,13151,30.773,12549,,
5.304,-323,5.304,-276,41.277,-3326,5.304,141,5.298,233,9.172,282,,,,,,,4.195,787,4.195,-17,4.195,-697,4.195,13143,30.78,12209,,
5.309,-214,5.309,-265,41.329,-3467,5.309,194,5.304,387,9.206,264,,,,,,,4.198,788,4.198,-15,4.198,-698,4.198,13160,30.782,12391,,
5.315,-228,5.315,-257,41.329,-3467,5.315,141,5.309,-75,9.212,299,,,,,,,4.2,788,4.2,-15,4.2,-695,4.2,13135,30.787,12123,,
5.321,-305,5.321,-251,41.699,-1928,5.321,106,5.315,-154,9.223,563,,,,,,,4.202,788,4.202,-14,4.202,-699,4.202,13168,30.787,12123,,
5.326,-164,5.326,-250,41.813,-2751,5.326,18,5.321,-774,9.246,-70,,,,,,,4.205,789,4.205,-15,4.205,-698,4.205,13169,30.79,11517,,
5.332,-353,5.332,-244,41.813,-2751,5.332,106,5.326,-154,9.257,106,,,,,,,4.207,789,4.207,-14,4.207,-699,4.207,13177,30.789,11305,,
5.338,-178,5.338,-237,41.893,-2860,5.338,123,5.332,75,9.274,194,,,,,,,4.21,788,4.21,-15,4.21,-698,4.21,13160,30.791,11171,,
5.344,-289,5.344,-227,41.893,-2860,5.344,176,5.338,695,9.286,106,,,,,,,4.212,788,4.212,-17,4.212,-699,4.212,13169,30.813,12153,,
5.349,-163,5.349,-218,42.194,-1396,5.349,158,5.344,229,9.303,246,,,,,,,4.214,788,4.214,-16,4.214,-699,4.214,13168,30.818,11625,,
5.355,-210,5.355,-207,42.349,-2251,5.355,194,5.349,312,9.303,246,,,,,,,4.217,787,4.217,-15,4.217,-699,4.217,13159,30.823,11476,,
5.361,-202,5.361,-203,42.349,-2251,5.361,70,5.355,-466,9.32,35,,,,,,,4.219,787,4.219,-15,4.219,-700,4.219,13167,30.832,11740,,
5.366,-158,5.366,-203,42.349,-2251,5.366,0,5.361,-695,9.337,299,,,,,,,4.222,788,4.222,-16,4.222,-699,4.222,13168,30.835,11591,,
5.372,-241,5.372,-202,42.901,360,5.372,18,5.366,-774,9.349,106,,,,,,,4.224,788,4.224,-17,4.224,-700,4.224,13177,30.839,12033,,
5.378,-228,5.378,-199,42.998,568,5.378,53,5.372,-75,9.354,-158,,,,,,,4.226,787,4.226,-16,4.226,-697,4.226,13142,30.844,12099,,
5.383,-148,5.383,-198,42.998,568,5.383,18,5.378,79,9.36,-176,,,,,,,4.229,787,4.229,-16,4.229,-701,4.229,13176,30.847,11836,,
5.389,-206,5.389,-193,43.169,-701,5.389,88,5.383,308,9.383,282,,,,,,,4.231,787,4.231,-18,4.231,-702,4.231,13184,30.856,11597,,
5.395,-266,5.395,-181,43.169,-701,5.395,211,5.389,695,9.394,70,,,,,,,4.234,788,4.234,-17,4.234,-699,4.234,13169,30.859,11361,,
5.4,-146,5.4,-168,43.431,170,5.4,229,5.395,928,9.411,53,,,,,,,4.236,788,4.236,-18,4.236,-703,4.236,13202,30.863,11713,,
5.406,-92,5.406,-151,43.471,113,5.406,299,5.4,928,9.417,158,,,,,,,4.238,786,4.238,-16,4.238,-700,4.238,13158,30.866,11662,,
5.412,-166,5.412,-135,43.471,113,5.412,282,5.406,312,9.44,158,,,,,,,4.241,787,4.241,-17,4.241,-702,4.241,13184,30.878,12169,,
5.417,-143,5.417,-125,43.619,-962,5.417,176,5.412,-233,9.445,264,,,,,,,4.243,788,4.243,-17,4.243,-700,4.243,13177,30.887,12054,,
5.423,-34,5.423,-117,43.619,-962,5.423,141,5.417,-695,9.451,493,,,,,,,4.246,787,4.246,-20,4.246,-699,4.246,13160,30.89,11868,,
5.429,-176,5.429,-105,43.898,206,5.429,211,5.423,-312,9.462,387,,,,,,,4.248,790,4.248,-20,4.248,-699,4.248,13188,30.902,12390,,
5.434,-109,5.434,-97,44.018,252,5.434,141,5.429,-154,9.474,616,,,,,,,4.25,790,4.25,-16,4.25,-697,4.25,13171,30.912,12145,,
5.44,-38,5.44,-89,44.018,252,5.44,141,5.434,0,9.485,334,,,,,,,4.253,789,4.253,-16,4.253,-695,4.253,13145,30.914,12496,,
5.446,-86,5.446,-80,44.018,252,5.446,158,5.44,-233,9.491,-53,,,,,,,4.255,788,4.255,-19,4.255,-694,4.255,13128,30.919,11951,,
5.451,-116,5.451,-70,44.519,1857,5.451,176,5.446,154,9.497,-246,,,,,,,4.258,790,4.258,-18,4.258,-696,4.258,13163,30.921,12253,,
5.457,-29,5.457,-60,44.519,1857,5.457,176,5.451,154,9.514,0,,,,,,,4.26,790,4.26,-20,4.26,-695,4.26,13155,30.926,11977,,
5.463,-23,5.463,-47,44.838,2131,5.463,229,5.457,312,9.519,246,,,,,,,4.262,790,4.262,-19,4.262,-695,4.262,13155,30.931,12010,,
5.469,-68,5.469,-34,44.963,540,5.469,229,5.463,233,9.525,264,,,,,,,4.265,791,4.265,-19,4.265,-695,4.265,13164,30.938,12405,,
5.474,-92,5.474,-14,44.963,540,5.474,352,5.469,774,9.531,123,,,,,,,4.267,791,4.267,-18,4.267,-697,4.267,13180,30.943,12146,,
5.48,-18,5.48,18,45.043,199,5.48,563,5.474,1470,9.542,70,,,,,,,4.27,792,4.27,-18,4.27,-696,4.27,13181,30.948,12382,,
5.486,167,5.486,48,45.043,199,5.486,528,5.48,1316,9.559,-211,,,,,,,4.272,790,4.272,-18,4.272,-696,4.272,13163,30.95,12731,,
5.491,110,5.491,68,45.431,1111,5.491,352,5.486,0,9.576,211,,,,,,,4.274,791,4.274,-20,4.274,-696,4.274,13173,30.952,12618,,
5.497,53,5.497,80,45.431,1111,5.497,211,5.491,-1549,9.582,211,,,,,,,4.277,785,4.277,-21,4.277,-695,4.277,13108,30.955,12817,,
5.503,55,5.503,91,45.595,520,5.503,194,5.497,-1470,9.582,211,,,,,,,4.279,784,4.279,-21,4.279,-696,4.279,13107,30.957,12592,,
5.508,140,5.508,100,45.595,520,5.508,158,5.503,-854,9.587,53,,,,,,,4.282,785,4.282,-19,4.282,-692,4.282,13083,30.96,12793,,
5.514,88,5.514,112,45.932,1403,5.514,211,5.508,0,9.599,-493,,,,,,,4.284,785,4.284,-23,4.284,-691,4.284,13076,30.96,12793,,
5.52,55,5.52,122,46.097,23,5.52,176,5.514,-79,9.604,-669,,,,,,,4.279,720,4.279,-89,4.279,-732,4.279,12883,30.962,12615,,
5.525,239,5.525,130,46.097,23,5.525,141,5.52,-75,9.634,-422,,,,,,,4.281,720,4.281,-89,4.281,-730,4.281,12865,30.961,12753,,
5.531,236,5.531,126,46.097,23,5.531,-70,5.525,-1236,9.639,-475,,,,,,,4.284,721,4.284,-88,4.284,-728,4.284,12855,30.964,12786,,
5.537,74,5.537,110,46.421,780,5.537,-282,5.531,-2015,9.656,-810,,,,,,,4.286,721,4.286,-84,4.286,-727,4.286,12842,30.969,12324,,
5.542,2,5.542,93,46.587,208,5.542,-299,5.537,-1936,9.668,-1267,,,,,,,4.289,725,4.289,-84,4.289,-727,4.289,12877,30.976,12644,,
5.548,3,5.548,95,46.587,208,5.548,35,5.542,462,9.673,-1214,,,,,,,4.291,727,4.291,-81,4.291,-728,4.291,12900,30.978,12524,,
5.554,142,5.554,112,46.883,986,5.554,299,5.548,2556,9.685,-915,,,,,,,4.294,730,4.294,-81,4.294,-724,4.294,12892,30.981,12879,,
5.559,137,5.559,135,46.946,889,5.559,405,5.554,3098,9.696,-1003,,,,,,,4.296,731,4.296,-85,4.296,-725,4.296,12913,30.983,12730,,
5.565,186,5.565,156,46.946,889,5.565,370,5.559,1474,9.707,-792,,,,,,,4.298,730,4.298,-84,4.298,-729,4.298,12939,30.993,12877,,
5.572,156,5.572,178,47.019,46,5.572,387,5.565,387,9.713,-986,,,,,,,4.301,730,4.301,-88,4.301,-728,4.301,12934,31,12685,,
5.577,227,5.577,200,47.094,-411,5.577,387,5.572,-79,9.719,-1021,,,,,,,4.303,728,4.303,-89,4.303,-724,4.303,12882,31.005,13012,,
5.583,187,5.583,223,47.094,-411,5.583,405,5.577,154,9.73,-757,,,,,,,4.306,727,4.306,-90,4.306,-722,4.306,12857,31.012,13162,,
5.589,267,5.589,245,47.094,-411,5.589,387,5.583,0,9.747,-528,,,,,,,4.308,730,4.308,-90,4.308,-722,4.308,12883,31.014,13423,,
5.594,219,5.594,270,47.595,1121,5.594,440,5.589,233,9.759,-246,,,,,,,4.31,731,4.31,-95,4.31,-720,4.31,12880,31.021,12635,,
5.6,343,5.6,294,47.595,1121,5.6,422,5.594,75,9.776,-352,,,,,,,4.313,733,4.313,-93,4.313,-718,4.313,12878,31.026,13096,,
5.606,324,5.606,316,48.073,1694,5.606,387,5.6,0,9.787,-528,,,,,,,4.315,733,4.315,-97,4.315,-719,4.315,12892,31.036,13089,,
5.611,338,5.611,333,48.13,1265,5.611,299,5.606,-620,9.798,-53,,,,,,,4.318,732,4.318,-96,4.318,-717,4.318,12864,31.038,12905,,
5.617,380,5.617,345,48.13,1265,5.617,211,5.611,-928,9.81,158,,,,,,,4.32,731,4.32,-93,4.32,-717,4.32,12852,31.041,13169,,
5.623,348,5.623,350,48.198,208,5.623,88,5.617,-1316,9.815,158,,,,,,,4.322,727,4.322,-93,4.322,-715,4.322,12799,31.043,13167,,
5.628,334,5.628,360,48.25,-158,5.628,176,5.623,-541,9.832,-88,,,,,,,4.325,726,4.325,-93,4.325,-713,4.325,12773,31.05,12532,,
5.634,319,5.634,372,48.25,-158,5.634,211,5.628,0,9.838,-106,,,,,,,4.327,727,4.327,-92,4.327,-713,4.327,12780,31.057,12454,,
5.64,436,5.64,385,48.483,-5,5.64,229,5.634,620,9.844,18,,,,,,,4.33,728,4.33,-91,4.33,-714,4.33,12797,31.062,12834,,
5.646,439,5.646,397,48.706,563,5.646,211,5.64,154,9.844,18,,,,,,,4.332,735,4.332,-91,4.332,-714,4.332,12859,31.065,12652,,
5.651,319,5.651,409,48.706,563,5.651,211,5.646,0,9.85,-35,,,,,,,4.334,736,4.334,-93,4.334,-712,4.334,12853,31.072,13045,,
5.657,502,5.657,416,48.882,-165,5.657,123,5.651,-466,9.855,-229,,,,,,,4.337,738,4.337,-93,4.337,-714,4.337,12888,31.074,12568,,
5.663,419,5.663,424,48.882,-165,5.663,141,5.657,-308,9.861,-211,,,,,,,4.339,738,4.339,-93,4.339,-715,4.339,12897,31.077,12960,,
5.668,401,5.668,430,49.287,727,5.668,106,5.663,-462,9.867,53,,,,,,,4.342,739,4.342,-94,4.342,-716,4.342,12916,31.079,12740,,
5.674,421,5.674,434,49.287,727,5.674,70,5.668,-233,9.872,158,,,,,,,4.344,740,4.344,-94,4.344,-715,4.344,12916,31.086,12905,,
5.68,479,5.68,440,49.343,733,5.68,106,5.674,-154,9.884,141,,,,,,,4.346,740,4.346,-95,4.346,-712,4.346,12891,31.091,12738,,
5.685,436,5.685,445,49.48,-313,5.685,88,5.68,-79,9.896,528,,,,,,,4.349,742,4.349,-88,4.349,-711,4.349,12893,31.094,13035,,
5.691,475,5.691,443,49.48,-313,5.691,-35,5.685,-462,9.901,458,,,,,,,4.351,746,4.351,-89,4.351,-710,4.351,12921,31.098,12828,,
5.697,425,5.697,442,49.89,454,5.697,-18,5.691,-546,9.907,158,,,,,,,4.354,745,4.354,-90,4.354,-708,4.354,12896,31.101,13020,,
5.702,405,5.702,446,49.89,454,5.702,70,5.697,-79,9.93,-299,,,,,,,4.356,742,4.356,-90,4.356,-706,4.356,12852,31.103,12897,,
5.708,482,5.708,455,50.05,-174,5.708,158,5.702,849,9.941,-123,,,,,,,4.358,742,4.358,-90,4.358,-705,4.358,12843,31.106,13141,,
5.714,388,5.714,474,50.05,-174,5.714,334,5.708,1549,9.947,211,,,,,,,4.361,740,4.361,-90,4.361,-705,4.361,12825,31.113,13126,,
5.719,488,5.719,500,50.42,714,5.719,458,5.714,1707,9.952,299,,,,,,,4.363,740,4.363,-88,4.363,-706,4.363,12832,31.115,12864,,
5.725,513,5.725,537,50.42,714,5.725,651,5.719,2169,9.964,317,,,,,,,4.366,743,4.366,-88,4.366,-704,4.366,12842,31.118,13050,,
5.731,592,5.731,574,50.517,642,5.731,651,5.725,1395,9.975,141,,,,,,,4.368,742,4.368,-85,4.368,-704,4.368,12829,31.12,12686,,
5.736,721,5.736,598,50.603,-292,5.736,422,5.731,-158,9.987,194,,,,,,,4.37,746,4.37,-83,4.37,-703,4.37,12855,31.125,13055,,
5.742,669,5.742,604,50.66,-586,5.742,106,5.736,-2398,9.998,70,,,,,,,4.373,748,4.373,-78,4.373,-704,4.373,12877,31.125,13055,,
5.748,553,5.748,599,50.66,-586,5.748,-88,5.742,-3252,10.038,440,,,,,,,4.375,749,4.375,-76,4.375,-703,4.375,12876,31.127,12858,,
5.753,580,5.753,585,50.66,-586,5.753,-246,5.748,-2939,10.043,370,,,,,,,4.378,750,4.378,-74,4.378,-701,4.378,12866,31.134,12793,,
5.759,547,5.759,576,51.103,460,5.759,-158,5.753,-1162,10.049,422,,,,,,,4.38,752,4.38,-74,4.38,-703,4.38,12901,31.141,12284,,
5.765,585,5.765,568,51.263,-643,5.765,-141,5.759,-233,10.06,299,,,,,,,4.382,751,4.382,-71,4.382,-701,4.382,12872,31.15,12759,,
5.771,547,5.771,557,51.263,-643,5.771,-194,5.765,229,10.077,-158,,,,,,,4.385,754,4.385,-72,4.385,-694,4.385,12841,31.153,12546,,
5.776,633,5.776,538,51.366,-647,5.776,-334,5.771,-774,10.089,-70,,,,,,,4.387,753,4.387,-73,4.387,-695,4.387,12841,31.155,12661,,
5.782,470,5.782,515,51.366,-647,5.782,-405,5.776,-1162,10.095,158,,,,,,,4.39,756,4.39,-71,4.39,-693,4.39,12850,31.16,12303,,
5.788,493,5.788,491,51.731,398,5.788,-422,5.782,-1003,10.106,387,,,,,,,4.392,757,4.392,-77,4.392,-694,4.392,12873,31.162,12725,,
5.793,465,5.793,465,51.879,-706,5.793,-458,5.788,-546,10.106,387,,,,,,,4.394,758,4.394,-75,4.394,-698,4.394,12914,31.165,12886,,
5.799,495,5.799,433,51.879,-706,5.799,-563,5.793,-695,10.112,282,,,,,,,4.397,758,4.397,-75,4.397,-698,4.397,12914,31.167,12598,,
5.805,308,5.805,409,51.952,-730,5.805,-422,5.799,0,10.129,510,,,,,,,4.399,762,4.399,-76,4.399,-695,4.399,12927,31.172,13009,,
5.81,324,5.81,385,51.952,-730,5.81,-422,5.805,158,10.14,475,,,,,,,4.402,762,4.402,-74,4.402,-695,4.402,12925,31.177,12267,,
5.816,511,5.816,364,52.369,465,5.816,-370,5.81,849,10.158,264,,,,,,,4.404,758,4.404,-74,4.404,-693,4.404,12871,31.179,12439,,
5.822,382,5.822,331,52.499,-496,5.822,-581,5.816,-700,10.169,352,,,,,,,4.406,760,4.406,-78,4.406,-691,4.406,12877,31.182,12105,,
5.827,222,5.827,286,52.499,-496,5.827,-792,5.822,-1628,10.175,264,,,,,,,4.409,759,4.409,-78,4.409,-689,4.409,12851,31.184,12582,,
5.833,293,5.833,238,52.59,-685,5.833,-845,5.827,-2090,10.181,0,,,,,,,4.411,760,4.411,-76,4.411,-689,4.411,12858,31.196,12366,,
5.839,118,5.839,196,52.59,-685,5.839,-739,5.833,-695,10.186,-53,,,,,,,4.414,760,4.414,-76,4.414,-689,4.414,12858,31.199,11968,,
5.844,198,5.844,153,52.978,363,5.844,-757,5.839,154,10.22,422,,,,,,,4.416,762,4.416,-76,4.416,-688,4.416,12868,31.201,13095,,
5.85,35,5.85,119,52.978,363,5.85,-598,5.844,1087,10.237,70,,,,,,,4.419,760,4.419,-77,4.419,-691,4.419,12876,31.203,12617,,
5.856,49,5.856,91,53.024,279,5.856,-493,5.85,1082,10.254,334,,,,,,,4.421,760,4.421,-75,4.421,-689,4.421,12857,31.211,12008,,
5.861,184,5.861,65,53.143,-557,5.861,-458,5.856,1316,10.266,-158,,,,,,,4.423,761,4.423,-73,4.423,-687,4.423,12848,31.213,11918,,
5.868,91,5.868,31,53.143,-557,5.868,-598,5.861,0,10.271,-158,,,,,,,4.426,762,4.426,-75,4.426,-688,4.426,12867,31.218,12206,,
5.874,-101,5.874,-9,53.65,703,5.874,-704,5.868,-928,10.277,18,,,,,,,4.428,759,4.428,-74,4.428,-690,4.428,12855,31.223,11761,,
5.879,-43,5.879,-48,53.65,703,5.879,-686,5.874,-1003,10.283,53,,,,,,,4.431,759,4.431,-76,4.431,-689,4.431,12849,31.225,12064,,
5.885,-182,5.885,-68,53.753,595,5.885,-352,5.879,1082,10.288,35,,,,,,,4.433,758,4.433,-75,4.433,-688,4.433,12830,31.227,11805,,
5.891,-30,5.891,-81,53.85,-309,5.891,-229,5.885,2090,10.294,-123,,,,,,,4.435,759,4.435,-75,4.435,-687,4.435,12831,31.237,11814,,
